"Time (s)","Acceleration x (m/s^2)","Acceleration y (m/s^2)","Acceleration z (m/s^2)"
2.633484500E-2,-6.133769751E-1,-1.092993021E0,9.783405304E0
7.633484500E-2,-5.822603703E-1,-1.088524103E0,9.748213768E0
1.263348450E-1,-5.721733570E-1,-1.035117626E0,9.754880905E0
1.763348450E-1,-6.128015518E-1,-1.056461334E0,9.757480621E0
2.263348450E-1,-6.332961917E-1,-1.096141934E0,9.741962433E0
2.763348450E-1,-6.051628590E-1,-1.099427819E0,9.745912552E0
3.263348450E-1,-5.816884041E-1,-1.074699640E0,9.752956390E0
3.763348450E-1,-5.935728550E-1,-1.052803516E0,9.753207207E0
4.263348450E-1,-5.988536477E-1,-1.063862324E0,9.753232956E0
4.763348450E-1,-6.082202196E-1,-1.088718891E0,9.748451233E0
5.263348450E-1,-6.221603155E-1,-1.101170063E0,9.754729271E0
5.763348450E-1,-5.956222415E-1,-1.087060809E0,9.754169464E0
6.263348450E-1,-5.732209682E-1,-1.058155775E0,9.756933212E0
6.763348450E-1,-6.015613675E-1,-1.052255392E0,9.758211136E0
7.263348450E-1,-6.403522491E-1,-1.080217123E0,9.754076004E0
7.763348450E-1,-6.122921705E-1,-1.103808045E0,9.746114731E0
8.263348450E-1,-5.798498988E-1,-1.085181713E0,9.755979538E0
8.763348450E-1,-5.872203708E-1,-1.056414962E0,9.761262894E0
9.263348450E-1,-6.208978891E-1,-1.055876613E0,9.759758949E0
9.763348450E-1,-6.230518818E-1,-1.081307888E0,9.754329681E0
1.026334845E0,-5.906138420E-1,-1.098824739E0,9.748695374E0
1.076334845E0,-5.752705336E-1,-1.083281755E0,9.755594254E0
1.126334845E0,-6.033979654E-1,-1.055259943E0,9.753305435E0
1.176334845E0,-6.216963530E-1,-1.052073002E0,9.765670776E0
1.226334845E0,-6.099439859E-1,-1.083697677E0,9.758709908E0
1.276334845E0,-5.990890265E-1,-1.099507570E0,9.748863220E0
1.326334845E0,-5.897852778E-1,-1.081767678E0,9.757872581E0
1.376334845E0,-5.908148289E-1,-1.056832433E0,9.760578156E0
1.426334845E0,-6.026378870E-1,-1.061557770E0,9.762326241E0
1.476334845E0,-6.225088835E-1,-1.079170942E0,9.756543159E0
1.526334845E0,-6.101960540E-1,-1.096130848E0,9.754529953E0
1.576334845E0,-5.883863568E-1,-1.081835032E0,9.760433197E0
1.626334845E0,-5.981152058E-1,-1.059356928E0,9.763292313E0
1.676334845E0,-6.012044549E-1,-1.064142704E0,9.761570930E0
1.726334845E0,-5.910812616E-1,-1.086242676E0,9.759278297E0
1.776334845E0,-6.005696058E-1,-1.096658945E0,9.755054474E0
1.826334845E0,-6.275632381E-1,-1.083060622E0,9.756276131E0
1.876334845E0,-6.356004477E-1,-1.071545362E0,9.756013870E0
1.926334845E0,-6.056880951E-1,-1.063434482E0,9.759614944E0
1.976334845E0,-5.673023462E-1,-1.071826935E0,9.753698349E0
2.026334845E0,-5.860010386E-1,-1.079701185E0,9.754981995E0
2.076334845E0,-6.309721470E-1,-1.076814413E0,9.755071640E0
2.126334845E0,-6.430909038E-1,-1.073771715E0,9.761695862E0
2.176334845E0,-6.011698842E-1,-1.089263320E0,9.755907059E0
2.226334845E0,-5.511893034E-1,-1.082676053E0,9.753701210E0
2.276334845E0,-5.951999426E-1,-1.044228554E0,9.771211624E0
2.326334845E0,-6.542459726E-1,-1.060943127E0,9.753499985E0
2.376334845E0,-6.030713320E-1,-1.130617857E0,9.748067856E0
2.426334845E0,-5.392117500E-1,-1.109277964E0,9.754501343E0
2.476334845E0,-5.963840485E-1,-1.022459984E0,9.768570900E0
2.526334845E0,-6.688122749E-1,-1.038491726E0,9.758101463E0
2.576334845E0,-6.100234389E-1,-1.130989075E0,9.753776550E0
2.626334845E0,-5.366764069E-1,-1.096618056E0,9.768115997E0
2.676334845E0,-6.055315733E-1,-1.023036599E0,9.764732361E0
2.726334845E0,-6.666390896E-1,-1.040854216E0,9.760160446E0
2.776334845E0,-6.044794321E-1,-1.139440298E0,9.760143280E0
2.826334845E0,-5.636815429E-1,-1.116652012E0,9.766471863E0
2.876334845E0,-5.660742521E-1,-1.060941100E0,9.764791489E0
2.926334845E0,-6.211039424E-1,-1.020544529E0,9.756726265E0
2.976334845E0,-6.324692965E-1,-1.044353485E0,9.765589714E0
3.026334845E0,-5.994613767E-1,-1.106299520E0,9.759437561E0
3.076334845E0,-5.930907726E-1,-1.130132437E0,9.753020287E0
3.126334845E0,-6.017438173E-1,-1.077419758E0,9.754987717E0
3.176334845E0,-5.976895094E-1,-1.032571793E0,9.764434814E0
3.226334845E0,-5.887048244E-1,-1.055337191E0,9.761844635E0
3.276334845E0,-6.060670614E-1,-1.101407886E0,9.758102417E0
3.326334845E0,-6.246929765E-1,-1.103063107E0,9.753301620E0
3.376334845E0,-6.182521582E-1,-1.072654366E0,9.760825157E0
3.426334845E0,-5.896301866E-1,-1.044594049E0,9.767047882E0
3.476334845E0,-5.784174204E-1,-1.041653514E0,9.771576881E0
3.526334845E0,-5.691272020E-1,-1.091058731E0,9.747579575E0
3.576334845E0,-6.356188655E-1,-1.151973963E0,9.744306564E0
3.626334845E0,-6.374358535E-1,-1.092226267E0,9.756454468E0
3.676334845E0,-5.886927843E-1,-1.024702907E0,9.764315605E0
3.726334845E0,-5.577197075E-1,-1.023478985E0,9.762993813E0
3.776334845E0,-5.928624868E-1,-1.085171819E0,9.757417679E0
3.826334845E0,-6.440147161E-1,-1.123892307E0,9.750699997E0
3.876334845E0,-6.293066144E-1,-1.105920792E0,9.755421638E0
3.926334845E0,-5.821509361E-1,-1.058832884E0,9.762305260E0
3.976334845E0,-5.600237846E-1,-1.043853045E0,9.764481544E0
4.026334845E0,-5.967317224E-1,-1.066832542E0,9.758995056E0
4.076334845E0,-6.410375834E-1,-1.096962094E0,9.751216888E0
4.126334845E0,-6.256010532E-1,-1.099413514E0,9.750963211E0
4.176334845E0,-5.860379338E-1,-1.075491667E0,9.753921509E0
4.226334845E0,-5.673507452E-1,-1.055970073E0,9.758428574E0
4.276334845E0,-5.984041095E-1,-1.068132401E0,9.758124352E0
4.326334845E0,-6.278800964E-1,-1.091708899E0,9.758152962E0
4.376334845E0,-6.212462187E-1,-1.092492819E0,9.758374214E0
4.426334845E0,-5.911362171E-1,-1.066887140E0,9.761032104E0
4.476334845E0,-5.861843824E-1,-1.045809984E0,9.761411667E0
4.526334845E0,-5.977833867E-1,-1.063681126E0,9.764784813E0
4.576334845E0,-5.993483663E-1,-1.115401268E0,9.757652283E0
4.626334845E0,-6.171866059E-1,-1.093445539E0,9.750402451E0
4.676334845E0,-6.040138006E-1,-1.069709539E0,9.763852119E0
4.726334845E0,-5.810876489E-1,-1.063187838E0,9.763577461E0
4.776334845E0,-6.016087532E-1,-1.050388336E0,9.763783455E0
4.826334845E0,-6.180492640E-1,-1.075358629E0,9.766669273E0
4.876334845E0,-6.093262434E-1,-1.103602409E0,9.753952026E0
4.926334845E0,-5.986127853E-1,-1.079560995E0,9.757751465E0
4.976334845E0,-5.922853351E-1,-1.063158393E0,9.758621216E0
5.026334845E0,-6.059682369E-1,-1.062981606E0,9.768108368E0
5.076334845E0,-5.951966047E-1,-1.082865477E0,9.761297226E0
5.126334845E0,-5.919425488E-1,-1.083465338E0,9.766456604E0
5.176334845E0,-6.005029678E-1,-1.075993061E0,9.756749153E0
5.226334845E0,-5.929678679E-1,-1.084633470E0,9.765304565E0
5.276334845E0,-6.163381338E-1,-1.093383074E0,9.744432449E0
5.326334845E0,-6.107769608E-1,-1.074241519E0,9.769639969E0
5.376334845E0,-5.906647444E-1,-1.070334196E0,9.756291389E0
5.426334845E0,-5.843452215E-1,-1.065383434E0,9.757113457E0
5.476334845E0,-5.911114216E-1,-1.059810996E0,9.756574631E0
5.526334845E0,-6.180946827E-1,-1.090976357E0,9.756267548E0
5.576334845E0,-5.991949439E-1,-1.107454896E0,9.770017624E0
5.626334845E0,-5.757892132E-1,-1.081417441E0,9.748206139E0
5.676334845E0,-5.865794420E-1,-1.055821180E0,9.779075623E0
5.726334845E0,-6.217554808E-1,-1.056745052E0,9.760963440E0
5.776334845E0,-6.043811440E-1,-1.079443216E0,9.788131714E0
5.826334845E0,-5.942925215E-1,-1.104216337E0,9.761124611E0
5.876334845E0,-5.947670937E-1,-1.093342423E0,9.738212585E0
5.926334845E0,-6.048364639E-1,-1.051449180E0,9.759658813E0
5.976334845E0,-6.125330329E-1,-1.053993344E0,9.763360977E0
6.026334845E0,-6.006842852E-1,-1.086071849E0,9.765897751E0
6.076334845E0,-5.946973562E-1,-1.098359108E0,9.757480621E0
6.126334845E0,-5.970405340E-1,-1.077696562E0,9.750772476E0
6.176334845E0,-5.932579041E-1,-1.105360389E0,9.783337593E0
6.226334845E0,-6.345287561E-1,-9.947048426E-1,9.771121979E0
6.276334845E0,-6.191588640E-1,-1.074586630E0,9.738328934E0
6.326334845E0,-5.495882034E-1,-1.171067953E0,9.758575439E0
6.376334845E0,-5.616315603E-1,-1.041783333E0,9.753582001E0
6.426334845E0,-6.398234367E-1,-1.013568878E0,9.762220383E0
6.476334845E0,-6.678840518E-1,-1.070169449E0,9.767039299E0
6.526334845E0,-6.098976135E-1,-1.122352123E0,9.759914398E0
6.576334845E0,-5.529000759E-1,-1.116090059E0,9.761389732E0
6.626334845E0,-5.634878874E-1,-1.071147919E0,9.761953354E0
6.676334845E0,-6.111141443E-1,-1.036493540E0,9.757639885E0
6.726334845E0,-6.352805495E-1,-1.060074568E0,9.757556915E0
6.776334845E0,-6.201461554E-1,-1.108174086E0,9.750488281E0
6.826334845E0,-6.020992994E-1,-1.102455616E0,9.760416031E0
6.876334845E0,-5.769914389E-1,-1.062324047E0,9.765895844E0
6.926334845E0,-5.777215958E-1,-1.054277420E0,9.764112473E0
6.976334845E0,-6.155478954E-1,-1.074642777E0,9.762608528E0
7.026334845E0,-6.316895485E-1,-1.095578194E0,9.755764008E0
7.076334845E0,-6.004788280E-1,-1.092585087E0,9.753330231E0
7.126334845E0,-5.786569715E-1,-1.070774674E0,9.762022018E0
7.176334845E0,-5.916970968E-1,-1.054023147E0,9.759508133E0
7.226334845E0,-6.055177450E-1,-1.065189123E0,9.761969566E0
7.276334845E0,-6.136906147E-1,-1.080463409E0,9.757879257E0
7.326334845E0,-6.055636406E-1,-1.091638923E0,9.762018204E0
7.376334845E0,-6.052109599E-1,-1.084832668E0,9.757432938E0
7.426334845E0,-6.037049294E-1,-1.072191715E0,9.761158943E0
7.476334845E0,-6.013637185E-1,-1.062280297E0,9.763749123E0
7.526334845E0,-6.009008288E-1,-1.070772648E0,9.758760452E0
7.576334845E0,-6.040714979E-1,-1.081982374E0,9.763548851E0
7.626334845E0,-6.071382165E-1,-1.087667227E0,9.764112473E0
7.676334845E0,-6.020210981E-1,-1.081055880E0,9.765892029E0
7.726334845E0,-6.314679384E-1,-1.085451126E0,9.613185883E0
7.776334845E0,-5.889047384E-1,-1.039646268E0,9.807785034E0
7.826334845E0,-5.979543924E-1,-1.068358660E0,9.778460503E0
7.876334845E0,-6.211367846E-1,-1.089747429E0,9.748708725E0
7.926334845E0,-6.020902395E-1,-1.083876371E0,9.756518364E0
7.976334845E0,-5.946785808E-1,-1.068330765E0,9.742470741E0
8.026334845E0,-5.893329978E-1,-1.066091299E0,9.818344116E0
8.076334845E0,-6.464763284E-1,-1.087398052E0,9.726938248E0
8.126334845E0,-6.020147800E-1,-1.056488752E0,9.730722427E0
8.176334845E0,-6.225387454E-1,-1.081163645E0,9.727193832E0
8.226334845E0,-6.284409761E-1,-1.083684564E0,9.749345779E0
8.276334845E0,-5.800408721E-1,-1.087503910E0,9.772751808E0
8.326334845E0,-5.913298726E-1,-1.074626923E0,9.763690948E0
8.376334845E0,-5.933609009E-1,-1.050086856E0,9.747034073E0
8.426334845E0,-5.887760520E-1,-1.077053547E0,9.763873100E0
8.476334845E0,-6.125630140E-1,-1.101061225E0,9.752283096E0
8.526334845E0,-6.317763925E-1,-1.101900578E0,9.773034096E0
8.576334845E0,-6.152280569E-1,-1.060867310E0,9.749858856E0
8.626334845E0,-5.763969421E-1,-1.058263540E0,9.759694099E0
8.676334845E0,-5.905059576E-1,-1.061114073E0,9.753492355E0
8.726334845E0,-6.483825445E-1,-1.094460249E0,9.755506516E0
8.776334845E0,-6.154335141E-1,-1.106816769E0,9.772491455E0
8.826334845E0,-5.616457462E-1,-1.069299340E0,9.751399994E0
8.876334845E0,-5.814725757E-1,-1.060230017E0,9.769335747E0
8.926334845E0,-6.459982395E-1,-1.094047785E0,9.737458229E0
8.976334845E0,-6.123951674E-1,-1.058457613E0,9.830705643E0
9.026334845E0,-5.798361301E-1,-1.092087030E0,9.764169693E0
9.076334845E0,-6.140829921E-1,-1.066791415E0,9.750661850E0
9.126334845E0,-5.810725689E-1,-1.052319527E0,9.755256653E0
9.176334845E0,-5.705453157E-1,-1.044030190E0,9.766365051E0
9.226334845E0,-6.280483603E-1,-1.085432768E0,9.743109703E0
9.276334845E0,-6.214090586E-1,-1.120308638E0,9.730991364E0
9.326334845E0,-6.204122305E-1,-1.116436481E0,9.756874084E0
9.376334845E0,-6.259597540E-1,-1.075917482E0,9.753111839E0
9.426334845E0,-6.015618443E-1,-1.021554708E0,9.725547791E0
9.476334845E0,-5.543388128E-1,-1.023801923E0,9.756725311E0
9.526334845E0,-5.707945824E-1,-1.081671953E0,9.771312714E0
9.576334845E0,-6.331487894E-1,-1.122663021E0,9.750944138E0
9.626334845E0,-6.499789953E-1,-1.126955867E0,9.744867325E0
9.676334845E0,-6.223434210E-1,-1.077701092E0,9.751344681E0
9.726334845E0,-5.674189329E-1,-1.049636364E0,9.762608528E0
9.776334845E0,-5.668087006E-1,-1.030025601E0,9.764053345E0
9.826334845E0,-6.072337627E-1,-1.073957443E0,9.758447647E0
9.876334845E0,-6.173319221E-1,-1.100793600E0,9.760066986E0
9.926334845E0,-6.091853380E-1,-1.099642992E0,9.757069588E0
9.976334845E0,-6.139224172E-1,-1.075264215E0,9.749240875E0
1.002633485E1,-5.990189314E-1,-1.061785817E0,9.764489174E0
1.007633484E1,-5.973937511E-1,-1.055011392E0,9.754846573E0
1.012633484E1,-5.983238220E-1,-1.073825836E0,9.756614685E0
1.017633485E1,-5.932287574E-1,-1.096367002E0,9.773258209E0
1.022633484E1,-5.968027115E-1,-1.092413783E0,9.753675461E0
1.027633485E1,-6.049177647E-1,-1.077801228E0,9.753351212E0
1.032633484E1,-6.156044602E-1,-1.073417544E0,9.751417160E0
1.037633484E1,-6.004110575E-1,-1.079634905E0,9.770237923E0
1.042633485E1,-5.886194706E-1,-1.072755456E0,9.756694794E0
1.047633484E1,-6.085175872E-1,-1.055986166E0,9.758213043E0
1.052633485E1,-6.215758324E-1,-1.079057455E0,9.757592201E0
1.057633484E1,-5.788904428E-1,-1.073959827E0,9.773008347E0
1.062633484E1,-5.635859966E-1,-1.059596539E0,9.784593582E0
1.067633485E1,-6.027770042E-1,-1.079136610E0,9.726397514E0
1.072633484E1,-6.306937933E-1,-1.069877625E0,9.756072998E0
1.077633485E1,-6.146440506E-1,-1.070119381E0,9.785728455E0
1.082633484E1,-5.651967525E-1,-1.087729454E0,9.757851601E0
1.087633484E1,-5.890346169E-1,-1.080291271E0,9.767381668E0
1.092633485E1,-6.067001820E-1,-1.073949695E0,9.769206047E0
1.097633484E1,-6.074600220E-1,-1.079820156E0,9.759728432E0
1.102633485E1,-6.095343828E-1,-1.077801228E0,9.747334480E0
1.107633484E1,-6.020056009E-1,-1.075396061E0,9.758428574E0
1.112633484E1,-5.978156328E-1,-1.074208021E0,9.754729271E0
1.117633485E1,-5.991857052E-1,-1.072543144E0,9.765216827E0
1.122633484E1,-6.066011190E-1,-1.078110695E0,9.767049789E0
1.127633485E1,-6.028764248E-1,-1.081913710E0,9.757854462E0
1.132633484E1,-6.006748676E-1,-1.080698371E0,9.757208824E0
1.137633484E1,-5.964484215E-1,-1.069243193E0,9.759432793E0
1.142633485E1,-6.004608870E-1,-1.069805145E0,9.755754471E0
1.147633484E1,-6.116045713E-1,-1.074567199E0,9.759828568E0
1.152633485E1,-6.048153639E-1,-1.082559943E0,9.759204865E0
1.157633484E1,-5.950077176E-1,-1.087423682E0,9.759497643E0
1.162633484E1,-5.990502834E-1,-1.077343106E0,9.751371384E0
1.167633485E1,-6.049299836E-1,-1.067589998E0,9.768245697E0
1.172633484E1,-6.058724523E-1,-1.070741653E0,9.762105942E0
1.177633485E1,-5.999668837E-1,-1.076989651E0,9.759492874E0
1.182633484E1,-5.991703272E-1,-1.079214573E0,9.757280350E0
1.187633484E1,-6.013702154E-1,-1.078479052E0,9.761576653E0
1.192633485E1,-6.061608195E-1,-1.075471401E0,9.763002396E0
1.197633484E1,-6.030352116E-1,-1.074610114E0,9.756059647E0
1.202633485E1,-6.005142927E-1,-1.080316186E0,9.753762245E0
1.207633484E1,-6.054103971E-1,-1.080501080E0,9.759026527E0
1.212633484E1,-6.050078869E-1,-1.072787046E0,9.756607056E0
1.217633485E1,-6.026486158E-1,-1.074793935E0,9.758722305E0
1.222633484E1,-6.052896976E-1,-1.080812454E0,9.755988121E0
1.227633485E1,-6.020081043E-1,-1.080502391E0,9.762128830E0
1.232633485E1,-6.016018391E-1,-1.078248858E0,9.758350372E0
1.237633484E1,-6.082785726E-1,-1.073967338E0,9.761358261E0
1.242633485E1,-6.053370237E-1,-1.075645328E0,9.768121719E0
1.247633484E1,-6.034575701E-1,-1.076603413E0,9.760210037E0
1.252633485E1,-5.940660238E-1,-1.078903437E0,9.757249832E0
1.257633485E1,-6.001492739E-1,-1.078293562E0,9.757817268E0
1.262633484E1,-6.084349751E-1,-1.073557138E0,9.761993408E0
1.267633485E1,-6.073052883E-1,-1.075592518E0,9.761537552E0
1.272633484E1,-5.960783958E-1,-1.074671030E0,9.757530212E0
1.277633485E1,-5.912840366E-1,-1.078106165E0,9.762563705E0
1.282633485E1,-6.054847240E-1,-1.074780941E0,9.756656647E0
1.287633484E1,-6.103092432E-1,-1.080673814E0,9.756469727E0
1.292633485E1,-6.013702154E-1,-1.079517245E0,9.751440048E0
1.297633484E1,-5.927752256E-1,-1.074405193E0,9.769459724E0
1.302633485E1,-5.997192860E-1,-1.070550203E0,9.760374069E0
1.307633485E1,-6.082644463E-1,-1.073713899E0,9.755752563E0
1.312633484E1,-6.058365107E-1,-1.082232356E0,9.757677078E0
1.317633485E1,-5.958678722E-1,-1.082285762E0,9.757986069E0
1.322633484E1,-5.918260813E-1,-1.072789431E0,9.759849548E0
1.327633485E1,-5.984566212E-1,-1.067021489E0,9.760766983E0
1.332633485E1,-6.023515463E-1,-1.074792385E0,9.760500908E0
1.337633484E1,-6.098451614E-1,-1.079041004E0,9.754461288E0
1.342633485E1,-6.068177819E-1,-1.083415985E0,9.760496140E0
1.347633484E1,-6.019239426E-1,-1.077112436E0,9.759111404E0
1.352633485E1,-5.965940952E-1,-1.069162846E0,9.755386353E0
1.357633485E1,-5.983597636E-1,-1.075004339E0,9.758955002E0
1.362633484E1,-6.066887379E-1,-1.081548333E0,9.756746292E0
1.367633485E1,-6.070443392E-1,-1.080908298E0,9.748341560E0
1.372633484E1,-6.039971113E-1,-1.077965498E0,9.755556107E0
1.377633485E1,-5.957990289E-1,-1.070789456E0,9.764936447E0
1.382633485E1,-5.991500616E-1,-1.071440220E0,9.760212898E0
1.387633484E1,-6.062314510E-1,-1.082416415E0,9.757228851E0
1.392633485E1,-6.066573858E-1,-1.085416079E0,9.762760162E0
1.397633484E1,-5.967432261E-1,-1.076393843E0,9.756715775E0
1.402633485E1,-5.950473547E-1,-1.066496372E0,9.762118340E0
1.407633485E1,-6.000502110E-1,-1.073405981E0,9.758641243E0
1.412633484E1,-6.186064482E-1,-1.081111550E0,9.762375832E0
1.417633485E1,-6.142036319E-1,-1.089894772E0,9.751480103E0
1.422633484E1,-5.965988636E-1,-1.063269377E0,9.770816803E0
1.427633485E1,-5.961501598E-1,-1.063913345E0,9.756059647E0
1.432633485E1,-5.948610306E-1,-1.068234205E0,9.760265350E0
1.437633484E1,-6.337324381E-1,-1.107508183E0,9.736682892E0
1.442633485E1,-6.026257277E-1,-1.106231093E0,9.751355171E0
1.447633484E1,-5.792492032E-1,-1.078351259E0,9.773050308E0
1.452633485E1,-5.857801437E-1,-1.036385775E0,9.767267227E0
1.457633485E1,-6.284812093E-1,-1.047883749E0,9.755217552E0
1.462633484E1,-6.213514805E-1,-1.095617175E0,9.761810303E0
1.467633485E1,-5.794733763E-1,-1.124778509E0,9.764408112E0
1.472633484E1,-5.855153799E-1,-1.115038633E0,9.759367943E0
1.477633485E1,-6.143058538E-1,-1.042593002E0,9.768639565E0
1.482633485E1,-5.995085239E-1,-1.054562092E0,9.764412880E0
1.487633484E1,-6.013185978E-1,-1.083352566E0,9.758876801E0
1.492633485E1,-6.079770327E-1,-1.091973782E0,9.750293732E0
1.497633484E1,-6.037551165E-1,-1.084323168E0,9.776797295E0
1.502633485E1,-5.947521925E-1,-1.056546688E0,9.772749901E0
1.507633485E1,-6.013648510E-1,-1.050024033E0,9.728490829E0
1.512633484E1,-5.773984194E-1,-1.104780674E0,9.791978836E0
1.517633485E1,-5.900840759E-1,-1.105534315E0,9.768699646E0
1.522633484E1,-5.895063877E-1,-1.078188062E0,9.743081093E0
1.527633485E1,-6.452438831E-1,-1.006504178E0,9.756731987E0
1.532633485E1,-5.945042372E-1,-1.023094177E0,9.797315598E0
1.537633484E1,-5.382824540E-1,-1.083670616E0,9.810747147E0
1.542633485E1,-5.511606932E-1,-1.132876396E0,9.774780273E0
1.547633484E1,-5.887392759E-1,-1.099849224E0,9.741292953E0
1.552633485E1,-6.014641523E-1,-1.065001726E0,9.769916534E0
1.557633485E1,-6.172746420E-1,-1.053014040E0,9.756672859E0
1.562633484E1,-6.249162555E-1,-1.102449656E0,9.739523888E0
1.567633485E1,-5.749454498E-1,-1.049034357E0,9.826541901E0
1.572633484E1,-5.546559095E-1,-1.077627897E0,9.787239075E0
1.577633485E1,-5.938676596E-1,-1.087478757E0,9.736509323E0
1.582633485E1,-6.185121536E-1,-1.082568765E0,9.761208534E0
1.587633484E1,-6.064010859E-1,-1.074438095E0,9.753582001E0
1.592633485E1,-5.911237001E-1,-1.082479239E0,9.754998207E0
1.597633484E1,-5.656583309E-1,-1.068569899E0,9.778372765E0
1.602633484E1,-5.224212408E-1,-1.053784847E0,9.819461823E0
1.607633484E1,-6.223903894E-1,-1.044335604E0,9.780586243E0
1.612633485E1,-5.974324942E-1,-1.093641281E0,9.788639069E0
1.617633484E1,-5.847719312E-1,-1.095827818E0,9.766595840E0
1.622633484E1,-5.687968731E-1,-1.065919161E0,9.766002655E0
1.627633484E1,-5.700809956E-1,-1.058247328E0,9.735015869E0
1.632633484E1,-6.035963297E-1,-1.045405388E0,9.753656387E0
1.637633485E1,-6.089898348E-1,-1.098863125E0,9.787367821E0
1.642633484E1,-5.521222353E-1,-1.150961161E0,9.783129692E0
1.647633484E1,-5.756062269E-1,-1.422040224E0,1.037857914E1
1.652633484E1,-6.115374565E-1,-9.420603514E-1,9.726121902E0
1.657633484E1,-5.815281868E-1,-1.104895115E0,9.778743744E0
1.662633485E1,-5.678550005E-1,-1.149378300E0,9.770130157E0
1.667633484E1,-5.454335213E-1,-1.110226393E0,9.817745209E0
1.672633484E1,-6.211024523E-1,-1.044575810E0,9.638849258E0
1.677633484E1,-5.833079815E-1,-1.059129953E0,9.752771378E0
1.682633484E1,-5.685280561E-1,-1.020030737E0,9.746067047E0
1.687633485E1,-5.667265058E-1,-1.099658966E0,9.755566597E0
1.692633484E1,-6.165632010E-1,-1.131404400E0,9.764418602E0
1.697633484E1,-6.413627267E-1,-1.072507620E0,9.753788948E0
1.702633484E1,-5.969988108E-1,-1.041465998E0,9.711175919E0
1.707633484E1,-6.104109287E-1,-1.090468884E0,9.763240814E0
1.712633485E1,-5.755117536E-1,-1.114497423E0,9.747230530E0
1.717633484E1,-5.719430447E-1,-1.074142933E0,9.805524826E0
1.722633484E1,-5.693323612E-1,-1.066655636E0,9.842359543E0
1.727633484E1,-6.195850968E-1,-1.066864133E0,9.736262321E0
1.732633484E1,-6.057373285E-1,-1.085525990E0,9.768669128E0
1.737633485E1,-5.635210276E-1,-1.082325459E0,9.762327194E0
1.742633484E1,-5.641829967E-1,-1.080717802E0,9.763603210E0
1.747633484E1,-6.112926602E-1,-1.065147400E0,9.757781982E0
1.752633484E1,-6.165791750E-1,-1.078488588E0,9.758791924E0
1.757633484E1,-6.024042368E-1,-1.093306184E0,9.753306389E0
1.762633485E1,-5.839818120E-1,-1.086384058E0,9.759155273E0
1.767633484E1,-5.835430026E-1,-1.067368269E0,9.762650490E0
1.772633484E1,-5.964059830E-1,-1.073634624E0,9.757438660E0
1.777633484E1,-5.872335434E-1,-1.088532686E0,9.755634308E0
1.782633484E1,-5.684757829E-1,-1.097443223E0,9.744890213E0
1.787633485E1,-6.232772470E-1,-1.071590662E0,9.754284859E0
1.792633484E1,-6.250023246E-1,-1.051344752E0,9.771138191E0
1.797633484E1,-6.127941608E-1,-1.061441183E0,9.748235703E0
1.802633484E1,-5.703865290E-1,-1.084246635E0,9.761150360E0
1.807633484E1,-5.688742399E-1,-1.071967840E0,9.766838074E0
1.812633485E1,-5.952589512E-1,-1.089974880E0,9.745481491E0
1.817633484E1,-6.112558842E-1,-1.103686690E0,9.755542755E0
1.822633484E1,-6.016710997E-1,-1.090903640E0,9.759860039E0
1.827633484E1,-5.963417292E-1,-1.074189186E0,9.754755974E0
1.832633484E1,-5.927737951E-1,-1.057193637E0,9.757464409E0
1.837633485E1,-5.935258865E-1,-1.067248344E0,9.763746262E0
1.842633484E1,-5.971194506E-1,-1.090199709E0,9.753028870E0
1.847633484E1,-5.969528556E-1,-1.096040487E0,9.761001587E0
1.852633484E1,-5.936055183E-1,-1.086397171E0,9.760492325E0
1.857633484E1,-5.908529162E-1,-1.070412159E0,9.758010864E0
1.862633485E1,-5.980613232E-1,-1.066516042E0,9.760094643E0
1.867633484E1,-5.977377892E-1,-1.073645949E0,9.758771896E0
1.872633484E1,-5.956166983E-1,-1.080947876E0,9.753917694E0
1.877633484E1,-5.925250053E-1,-1.084682226E0,9.759618759E0
1.882633484E1,-5.964009762E-1,-1.078105807E0,9.761489868E0
1.887633485E1,-5.904474854E-1,-1.078998923E0,9.758914948E0
1.892633484E1,-5.971498489E-1,-1.081741810E0,9.756014824E0
1.897633484E1,-6.029341221E-1,-1.081081152E0,9.759851456E0
1.902633484E1,-5.987443924E-1,-1.075690746E0,9.762313843E0
1.907633484E1,-5.924298763E-1,-1.068547249E0,9.754467010E0
1.912633485E1,-5.880060792E-1,-1.075478315E0,9.760786057E0
1.917633484E1,-5.910133123E-1,-1.084938526E0,9.763255119E0
1.922633484E1,-5.976609588E-1,-1.087264061E0,9.757207870E0
1.927633484E1,-6.004758477E-1,-1.075781226E0,9.757606506E0
1.932633484E1,-5.957278013E-1,-1.073316336E0,9.757539749E0
1.937633485E1,-5.874695778E-1,-1.071240544E0,9.761508942E0
1.942633484E1,-5.920009613E-1,-1.077055216E0,9.758510590E0
1.947633484E1,-5.948628783E-1,-1.086952209E0,9.756744385E0
1.952633484E1,-5.969528556E-1,-1.084682107E0,9.761810303E0
1.957633484E1,-5.983009934E-1,-1.078107238E0,9.753063202E0
1.962633485E1,-5.960146189E-1,-1.074057102E0,9.758708954E0
1.967633484E1,-5.916258693E-1,-1.079763174E0,9.765563011E0
1.972633484E1,-6.002407074E-1,-1.079787731E0,9.761508942E0
1.977633484E1,-5.994485617E-1,-1.078695297E0,9.767093658E0
1.982633484E1,-5.943027139E-1,-1.076730728E0,9.758454323E0
1.987633485E1,-5.878292322E-1,-1.081318140E0,9.749433517E0
1.992633484E1,-5.905541182E-1,-1.078769922E0,9.758348465E0
1.997633484E1,-6.021506786E-1,-1.075509310E0,9.763858795E0
2.002633484E1,-6.071704030E-1,-1.078341007E0,9.761461258E0
2.007633484E1,-5.893356800E-1,-1.083158731E0,9.760889053E0
2.012633485E1,-5.825816393E-1,-1.084113479E0,9.760210991E0
2.017633484E1,-5.889158249E-1,-1.077218294E0,9.760830879E0
2.022633484E1,-6.030073166E-1,-1.074480295E0,9.754058838E0
2.027633484E1,-6.063555479E-1,-1.081394434E0,9.762147903E0
2.032633484E1,-5.950611830E-1,-1.079450130E0,9.753425598E0
2.037633485E1,-5.905497670E-1,-1.076072216E0,9.754999161E0
2.042633484E1,-5.920718908E-1,-1.074378967E0,9.766778946E0
2.047633484E1,-5.982313156E-1,-1.076869607E0,9.760719299E0
2.052633484E1,-5.973511934E-1,-1.084788561E0,9.751932144E0
2.057633484E1,-5.904430151E-1,-1.078784823E0,9.763055801E0
2.062633485E1,-5.941530466E-1,-1.072766542E0,9.763231277E0
2.067633484E1,-6.044211388E-1,-1.071189523E0,9.755384445E0
2.072633484E1,-5.954331756E-1,-1.081089973E0,9.767120361E0
2.077633484E1,-5.773636103E-1,-1.083469272E0,9.754321098E0
2.082633484E1,-5.952370167E-1,-1.080502033E0,9.764448166E0
2.087633485E1,-6.116349697E-1,-1.078227162E0,9.767519951E0
2.092633485E1,-5.893177390E-1,-1.081207752E0,9.760308266E0
2.097633484E1,-5.730513334E-1,-1.077588201E0,9.767253876E0
2.102633484E1,-5.949246287E-1,-1.077495575E0,9.758324623E0
2.107633484E1,-6.209682226E-1,-1.080502033E0,9.758387566E0
2.112633485E1,-6.140387058E-1,-1.080503464E0,9.756690979E0
2.117633485E1,-5.874189138E-1,-1.081925035E0,9.754489899E0
2.122633484E1,-5.619797111E-1,-1.082605839E0,9.761343002E0
2.127633484E1,-5.867042542E-1,-1.065242290E0,9.765909195E0
2.132633484E1,-6.237910390E-1,-1.080895901E0,9.764210701E0
2.137633485E1,-6.293566227E-1,-1.087480187E0,9.758764267E0
2.142633485E1,-5.904955268E-1,-1.095097184E0,9.755907059E0
2.147633484E1,-5.770976543E-1,-1.084608078E0,9.763429642E0
2.152633484E1,-5.889409184E-1,-1.071877599E0,9.759754181E0
2.157633484E1,-5.936746597E-1,-1.063537717E0,9.773566246E0
2.162633485E1,-5.949660540E-1,-1.065387487E0,9.753622055E0
2.167633485E1,-6.064189672E-1,-1.098359823E0,9.758115768E0
2.172633484E1,-6.038615704E-1,-1.105686188E0,9.752833366E0
2.177633484E1,-5.789037943E-1,-1.081136227E0,9.765739441E0
2.182633484E1,-5.858783722E-1,-1.077432275E0,9.758226395E0
2.187633485E1,-5.849602818E-1,-1.059579015E0,9.782167435E0
2.192633485E1,-6.086860895E-1,-1.028694987E0,9.752887726E0
2.197633484E1,-6.033746004E-1,-1.095250607E0,9.743286133E0
2.202633484E1,-5.997496843E-1,-1.085324049E0,9.777418137E0
2.207633484E1,-6.115771532E-1,-1.099019051E0,9.747751236E0
2.212633485E1,-5.779023170E-1,-1.079996347E0,9.765620232E0
2.217633485E1,-5.672541857E-1,-1.056547523E0,9.757360458E0
2.222633484E1,-6.002470255E-1,-1.078886509E0,9.761775970E0
2.227633484E1,-6.230539680E-1,-1.096658468E0,9.760884285E0
2.232633484E1,-5.968568325E-1,-1.080104113E0,9.758610725E0
2.237633485E1,-5.765556693E-1,-1.060451746E0,9.766288757E0
2.242633485E1,-5.936294794E-1,-1.066121817E0,9.760528564E0
2.247633484E1,-6.161447763E-1,-1.084131956E0,9.752484322E0
2.252633484E1,-6.029328108E-1,-1.090085149E0,9.757575989E0
2.257633484E1,-5.742660761E-1,-1.078106880E0,9.763923645E0
2.262633485E1,-5.745153427E-1,-1.067375183E0,9.756652832E0
2.267633485E1,-6.123886108E-1,-1.068674803E0,9.758650780E0
2.272633484E1,-6.189360619E-1,-1.083641052E0,9.754576683E0
2.277633484E1,-5.926229954E-1,-1.097369671E0,9.759574890E0
2.282633484E1,-5.705591440E-1,-1.080537319E0,9.761714935E0
2.287633485E1,-5.545685291E-1,-1.057236791E0,9.758100510E0
2.292633485E1,-6.111030579E-1,-1.072518826E0,9.758179665E0
2.297633484E1,-6.354056001E-1,-1.112135887E0,9.756188393E0
2.302633484E1,-6.059871316E-1,-1.102633834E0,9.763044357E0
2.307633484E1,-5.740923285E-1,-1.039443731E0,9.762252808E0
2.312633485E1,-5.748091936E-1,-1.053652287E0,9.763269424E0
2.317633485E1,-5.990966558E-1,-1.086314201E0,9.760417938E0
2.322633484E1,-6.237828732E-1,-1.086421967E0,9.748471260E0
2.327633484E1,-6.247284412E-1,-1.101973534E0,9.760202408E0
2.332633484E1,-5.773774385E-1,-1.077694654E0,9.759969711E0
2.337633485E1,-5.621261597E-1,-1.045477867E0,9.768292427E0
2.342633485E1,-6.151905060E-1,-1.062027216E0,9.763684273E0
2.347633484E1,-6.372353435E-1,-1.112086177E0,9.752320290E0
2.352633484E1,-5.452702641E-1,-1.117205620E0,9.755676270E0
2.357633484E1,-5.428308249E-1,-1.055966854E0,9.761437416E0
2.362633485E1,-6.363519430E-1,-1.044722319E0,9.766571999E0
2.367633485E1,-6.134572029E-1,-1.079135776E0,9.760906219E0
2.372633484E1,-5.839669704E-1,-1.074006081E0,9.764454842E0
2.377633484E1,-6.488245726E-1,-1.080927610E0,9.763226509E0
2.382633484E1,-6.232934594E-1,-1.101895690E0,9.751182556E0
2.387633485E1,-5.258749723E-1,-1.080841303E0,9.761831284E0
2.392633485E1,-5.315456986E-1,-1.050004244E0,9.768739700E0
2.397633484E1,-6.278368235E-1,-1.062510967E0,9.759008408E0
2.402633484E1,-6.488207579E-1,-1.092978001E0,9.753427505E0
2.407633484E1,-5.988824368E-1,-1.104954958E0,9.782247543E0
2.412633485E1,-5.909672976E-1,-1.101877213E0,9.728612900E0
2.417633485E1,-5.665920973E-1,-1.078066111E0,9.796710014E0
2.422633484E1,-6.057374477E-1,-1.040548325E0,9.748802185E0
2.427633484E1,-5.837668180E-1,-1.074927807E0,9.771142960E0
2.432633484E1,-6.158547401E-1,-1.103010893E0,9.803075790E0
2.437633485E1,-6.228409410E-1,-1.125269175E0,9.702302933E0
2.442633485E1,-5.992656946E-1,-1.100118399E0,9.757578850E0
2.447633484E1,-5.868394375E-1,-1.045173407E0,9.767259598E0
2.452633484E1,-6.352596283E-1,-1.041432381E0,9.754440308E0
2.457633484E1,-6.200782061E-1,-1.078369498E0,9.780198097E0
2.462633485E1,-5.751536489E-1,-1.114941835E0,9.769329071E0
2.467633485E1,-5.577645302E-1,-1.111251831E0,9.739171982E0
2.472633484E1,-6.041635275E-1,-1.066989422E0,9.772580147E0
2.477633484E1,-6.482462883E-1,-1.051651478E0,9.751616478E0
2.482633484E1,-5.946851969E-1,-1.083495021E0,9.785612106E0
2.487633485E1,-5.620837212E-1,-1.080684423E0,9.762996674E0
2.492633485E1,-5.537781715E-1,-1.078866720E0,9.784948349E0
2.497633484E1,-5.914046168E-1,-1.073714972E0,9.757471085E0
2.502633484E1,-6.213184595E-1,-1.075640559E0,9.756584167E0
2.507633484E1,-6.226840019E-1,-1.067634583E0,9.758867264E0
2.512633485E1,-6.106527448E-1,-1.057221413E0,9.754379272E0
2.517633485E1,-5.764236450E-1,-1.001222491E0,9.788914680E0
2.522633484E1,-6.795274019E-1,-9.344783425E-1,9.765672684E0
2.527633484E1,-6.262432933E-1,-7.845959663E-1,9.788705826E0
2.532633484E1,-5.331735611E-1,-1.009304404E0,9.777271271E0
2.537633485E1,-1.439209580E-1,-4.487402141E-1,9.778876305E0
2.542633485E1,1.521373540E-1,6.413777173E-2,9.788977623E0
2.547633484E1,-1.045674443E0,-1.856885672E0,1.163898849E1
2.552633484E1,-9.300677776E-1,-9.851621389E-1,6.776958466E0
2.557633484E1,-1.224764466E0,-1.258038044E0,1.041211700E1
2.562633485E1,-6.222693920E-1,-6.619042158E-1,1.034205914E1
2.567633485E1,-7.271381617E-1,-4.672192931E-1,9.092504501E0
2.572633484E1,-5.622325540E-1,-7.006343603E-1,1.063790703E1
2.577633484E1,-7.605184317E-1,-6.249090433E-1,9.412755966E0
2.582633484E1,-7.286045551E-1,-6.380926967E-1,9.802743912E0
2.587633485E1,-7.008683085E-1,-6.100386381E-1,9.907482147E0
2.592633485E1,-7.125301361E-1,-5.194259882E-1,9.556161880E0
2.597633484E1,-6.533297300E-1,-5.840857029E-1,9.921575546E0
2.602633484E1,-6.626796722E-1,-5.475237966E-1,9.687615395E0
2.607633484E1,-7.795832157E-1,-7.187867761E-1,9.856040955E0
2.612633485E1,-7.600837350E-1,-6.889795065E-1,9.590857506E0
2.617633485E1,-5.595561862E-1,-6.685677767E-1,1.013558769E1
2.622633484E1,-6.157958508E-1,-4.962136149E-1,9.450691223E0
2.627633484E1,-6.429003477E-1,-5.988564491E-1,9.917508125E0
2.632633484E1,-7.513511777E-1,-6.562869549E-1,9.754062653E0
2.637633485E1,-7.328404188E-1,-6.919876337E-1,9.718139648E0
2.642633485E1,-5.839690566E-1,-6.672999859E-1,9.997274399E0
2.647633484E1,-5.987983346E-1,-6.211210489E-1,9.557777405E0
2.652633484E1,-5.688321590E-1,-6.557891369E-1,1.034866714E1
2.657633484E1,-7.223451138E-1,-6.767758131E-1,9.622489929E0
2.662633485E1,-6.593394279E-1,-7.130787373E-1,9.615343094E0
2.667633485E1,-7.903267741E-1,-3.684566021E-1,1.029230785E1
2.672633484E1,-6.838862896E-1,-6.587387323E-1,9.251817703E0
2.677633484E1,-6.785650253E-1,-5.408889055E-1,9.757749557E0
2.682633484E1,-7.945597172E-1,-5.892080069E-1,9.985059738E0
2.687633485E1,-8.912341595E-1,-5.462225676E-1,9.619842529E0
2.692633485E1,-8.288213015E-1,-5.035927892E-1,9.815176010E0
2.697633484E1,-7.183497548E-1,-4.708023667E-1,9.767773628E0
2.702633484E1,-6.921182871E-1,-4.724577367E-1,9.781679153E0
2.707633484E1,-7.774584293E-1,-5.491341352E-1,9.883365631E0
2.712633485E1,-8.826873302E-1,-5.293415785E-1,9.576530457E0
2.717633485E1,-8.315732479E-1,-5.188618898E-1,9.837488174E0
2.722633484E1,-7.292759418E-1,-4.706931710E-1,9.866771698E0
2.727633484E1,-7.381396294E-1,-5.065969229E-1,9.721024513E0
2.732633484E1,-7.877024412E-1,-4.874631763E-1,9.892585754E0
2.737633485E1,-8.537435532E-1,-5.100921392E-1,9.708421707E0
2.742633485E1,-8.196872473E-1,-5.678308606E-1,9.874323845E0
2.747633484E1,-7.913090587E-1,-5.114418268E-1,9.860498428E0
2.752633484E1,-7.915976048E-1,-4.135492444E-1,9.642750740E0
2.757633484E1,-7.765552998E-1,-4.767919779E-1,9.920633316E0
2.762633485E1,-8.544859886E-1,-4.722948670E-1,9.717729568E0
2.767633485E1,-8.636653423E-1,-5.219416022E-1,9.729818344E0
2.772633484E1,-8.110511303E-1,-4.891965985E-1,9.804807663E0
2.777633484E1,-7.868738174E-1,-4.708939195E-1,9.942047119E0
2.782633484E1,-8.265876770E-1,-4.190311432E-1,9.648471832E0
2.787633485E1,-7.966709733E-1,-5.031070709E-1,9.801430702E0
2.792633485E1,-7.945569754E-1,-5.238432288E-1,9.763673782E0
2.797633484E1,-7.508319616E-1,-5.306454897E-1,9.870944977E0
2.802633484E1,-8.026046753E-1,-5.088886023E-1,9.601011276E0
2.807633484E1,-7.170231938E-1,-6.265118122E-1,9.999241829E0
2.812633485E1,-7.109241486E-1,-6.358015537E-1,9.876003265E0
2.817633485E1,-8.158965111E-1,-4.384343922E-1,9.211175919E0
2.822633484E1,-6.411168575E-1,-6.218597889E-1,1.058920670E1
2.827633484E1,-8.506535292E-1,-4.616581798E-1,9.013408661E0
2.832633484E1,-5.838087797E-1,-6.852208376E-1,1.048136902E1
2.837633485E1,-7.883480787E-1,-5.197497010E-1,9.400190353E0
2.842633485E1,-7.376890182E-1,-6.202036738E-1,9.768993378E0
2.847633484E1,-6.757431626E-1,-6.158573627E-1,1.008890343E1
2.852633484E1,-7.303900719E-1,-5.390402079E-1,9.653586388E0
2.857633484E1,-7.566319704E-1,-5.405126810E-1,9.607633591E0
2.862633485E1,-7.368756533E-1,-6.003017426E-1,9.696004868E0
2.867633485E1,-6.966841817E-1,-5.946306586E-1,9.978449821E0
2.872633484E1,-6.945153475E-1,-5.823841095E-1,9.600946426E0
2.877633484E1,-5.752263069E-1,-6.906803250E-1,1.014868355E1
2.882633484E1,-6.538552642E-1,-6.538239717E-1,9.528366089E0
2.887633485E1,-6.334436536E-1,-7.269611955E-1,9.769890785E0
2.892633485E1,-5.860531330E-1,-7.558506727E-1,1.005592060E1
2.897633484E1,-6.109929681E-1,-6.619970202E-1,9.713390350E0
2.902633484E1,-5.821186304E-1,-6.586586237E-1,9.735549927E0
2.907633484E1,-5.638556480E-1,-7.296275496E-1,9.914377213E0
2.912633485E1,-6.361539364E-1,-7.082374692E-1,9.531963348E0
2.917633485E1,-5.593067408E-1,-8.081735373E-1,1.009947681E1
2.922633484E1,-6.081955433E-1,-6.983215213E-1,9.455080032E0
2.927633484E1,-4.942696691E-1,-7.448927164E-1,1.012479019E1
2.932633484E1,-5.237365365E-1,-7.297157049E-1,9.782517433E0
2.937633485E1,-5.668998957E-1,-7.713013291E-1,9.834852219E0
2.942633485E1,-5.908681154E-1,-7.939345837E-1,9.774703979E0
2.947633484E1,-5.507634878E-1,-7.782700062E-1,9.869688034E0
2.952633484E1,-5.817906857E-1,-6.722428203E-1,9.414474487E0
2.957633484E1,-4.716072679E-1,-7.687652111E-1,1.020938873E1
2.962633485E1,-5.551994443E-1,-7.443984151E-1,9.777394295E0
2.967633485E1,-5.912233591E-1,-7.620889544E-1,9.702434540E0
2.972633484E1,-5.705544949E-1,-7.808860540E-1,9.798255920E0
2.977633484E1,-5.334647894E-1,-7.616292834E-1,9.836980820E0
2.982633484E1,-5.376124382E-1,-7.347407341E-1,9.775049210E0
2.987633485E1,-5.335268378E-1,-7.387226224E-1,9.792459488E0
2.992633485E1,-5.438227654E-1,-7.745672464E-1,9.846529007E0
2.997633484E1,-5.836344957E-1,-7.614315152E-1,9.683635712E0
3.002633484E1,-5.476721525E-1,-7.668796778E-1,9.885897636E0
3.007633484E1,-5.431330204E-1,-7.375764847E-1,9.742624283E0
3.012633485E1,-5.182607174E-1,-7.766457796E-1,9.948572159E0
3.017633485E1,-6.143923402E-1,-7.182773352E-1,9.494430542E0
3.022633484E1,-5.537692308E-1,-7.703839540E-1,9.854477882E0
3.027633484E1,-5.513864756E-1,-7.436743975E-1,9.728847504E0
3.032633484E1,-5.284130573E-1,-7.431771755E-1,9.836650848E0
3.037633485E1,-5.479388237E-1,-7.377398014E-1,9.851534843E0
3.042633485E1,-5.844617486E-1,-7.623765469E-1,9.664487839E0
3.047633484E1,-5.945278406E-1,-7.610049248E-1,9.810948372E0
3.052633484E1,-5.129762888E-1,-7.701555490E-1,9.734012604E0
3.057633484E1,-4.702277184E-1,-7.580975294E-1,9.808042526E0
3.062633485E1,-5.865322351E-1,-7.348985076E-1,9.803145409E0
3.067633485E1,-5.769368410E-1,-7.649711370E-1,9.774368286E0
3.072633484E1,-5.324019790E-1,-7.832259536E-1,9.787969589E0
3.077633484E1,-5.269210339E-1,-7.693880200E-1,9.793241501E0
3.082633484E1,-5.389131308E-1,-7.607063055E-1,9.788774490E0
3.087633485E1,-5.479843020E-1,-7.625761032E-1,9.786124229E0
3.092633485E1,-5.436040163E-1,-7.693690062E-1,9.789853096E0
3.097633484E1,-5.580239296E-1,-7.635484934E-1,9.793691635E0
3.102633484E1,-5.604183078E-1,-7.773374319E-1,9.786083221E0
3.107633484E1,-5.052399635E-1,-7.632049918E-1,9.795646667E0
3.112633485E1,-5.191186666E-1,-7.390074730E-1,9.793634415E0
3.117633485E1,-5.753539801E-1,-7.764896154E-1,9.793323517E0
3.122633484E1,-5.793242455E-1,-7.904838324E-1,9.787761688E0
3.127633484E1,-5.191138983E-1,-7.470585108E-1,9.791904449E0
3.132633484E1,-4.990653396E-1,-7.404892445E-1,9.795597076E0
3.137633485E1,-5.371859074E-1,-7.743067741E-1,9.787995338E0
3.142633485E1,-5.842338800E-1,-7.805993557E-1,9.790991783E0
3.147633484E1,-5.767965317E-1,-7.693597674E-1,9.787986755E0
3.152633484E1,-5.230419040E-1,-7.661077976E-1,9.786878586E0
3.157633484E1,-4.987919927E-1,-7.630506754E-1,9.794423103E0
3.162633485E1,-5.388221741E-1,-7.592911720E-1,9.789663315E0
3.167633485E1,-5.723930597E-1,-7.670631409E-1,9.785958290E0
3.172633484E1,-5.740962029E-1,-7.676766515E-1,9.779638290E0
3.177633484E1,-5.312423706E-1,-7.671640515E-1,9.786868095E0
3.182633484E1,-5.142406225E-1,-7.655677795E-1,9.793981552E0
3.187633485E1,-5.319558382E-1,-7.693709731E-1,9.790322304E0
3.192633485E1,-5.707063079E-1,-7.678850293E-1,9.786542892E0
3.197633484E1,-5.671113729E-1,-7.626700401E-1,9.789083481E0
3.202633484E1,-5.426985025E-1,-7.642993927E-1,9.793900490E0
3.207633485E1,-5.067752004E-1,-7.581993341E-1,9.797202110E0
3.212633484E1,-5.243740082E-1,-7.542648315E-1,9.787330627E0
3.217633484E1,-5.650842190E-1,-7.696579695E-1,9.787355423E0
3.222633485E1,-5.594537258E-1,-7.801554799E-1,9.789775848E0
3.227633484E1,-5.224760771E-1,-7.620388865E-1,9.786153793E0
3.232633485E1,-5.122368336E-1,-7.528282404E-1,9.794745445E0
3.237633484E1,-5.395752192E-1,-7.641026974E-1,9.787944794E0
3.242633484E1,-5.733717680E-1,-7.777019143E-1,9.788314819E0
3.247633485E1,-5.580675602E-1,-7.795641422E-1,9.782583237E0
3.252633484E1,-5.247794390E-1,-7.687307000E-1,9.790410995E0
3.257633485E1,-5.222585201E-1,-7.571641803E-1,9.790794373E0
3.262633484E1,-5.492041707E-1,-7.582372427E-1,9.795228958E0
3.267633484E1,-5.684826374E-1,-7.684832811E-1,9.791078568E0
3.272633485E1,-5.483726263E-1,-7.771157026E-1,9.789574623E0
3.277633484E1,-5.244238973E-1,-7.653909922E-1,9.791031837E0
3.282633485E1,-5.322361588E-1,-7.489814162E-1,9.740067482E0
3.287633484E1,-5.601561069E-1,-7.654837370E-1,9.781277657E0
3.292633484E1,-5.510827899E-1,-7.807333469E-1,9.803709030E0
3.297633485E1,-5.367012024E-1,-7.619129419E-1,9.750823021E0
3.302633484E1,-5.196963549E-1,-7.609711885E-1,9.800045013E0
3.307633485E1,-5.439447165E-1,-7.600183487E-1,9.774305344E0
3.312633484E1,-5.532208681E-1,-7.755393982E-1,9.789918900E0
3.317633484E1,-5.369421244E-1,-7.858706713E-1,9.800666809E0
3.322633485E1,-5.162647963E-1,-7.655727863E-1,9.777052879E0
3.327633484E1,-5.257565379E-1,-7.495008707E-1,9.789455414E0
3.332633485E1,-5.546357632E-1,-7.707765102E-1,9.780427933E0
3.337633484E1,-5.620920658E-1,-7.780696154E-1,9.769277573E0
3.342633484E1,-5.480763912E-1,-7.803670168E-1,9.793552399E0
3.347633485E1,-5.149248242E-1,-7.594416142E-1,9.814586639E0
3.352633484E1,-5.199629068E-1,-7.641205788E-1,9.794509888E0
3.357633485E1,-5.294793844E-1,-7.711420059E-1,9.792270660E0
3.362633484E1,-5.515662432E-1,-7.598144412E-1,9.795105934E0
3.367633484E1,-5.462518930E-1,-7.650606632E-1,9.797768593E0
3.372633485E1,-5.285054445E-1,-7.849121094E-1,9.777650833E0
3.377633484E1,-5.289095044E-1,-7.717252970E-1,9.782588959E0
3.382633485E1,-5.520336628E-1,-7.607364655E-1,9.791699409E0
3.387633484E1,-5.504346490E-1,-7.583364248E-1,9.785448074E0
3.392633484E1,-5.361744165E-1,-7.636503577E-1,9.774161339E0
3.397633485E1,-5.179619789E-1,-7.890127897E-1,9.807604790E0
3.402633484E1,-5.185706615E-1,-7.886905670E-1,9.787229538E0
3.407633485E1,-5.438203812E-1,-7.621912956E-1,9.795891762E0
3.412633484E1,-5.530610085E-1,-7.498373389E-1,9.794829369E0
3.417633484E1,-5.263979435E-1,-7.814029455E-1,9.785689354E0
3.422633485E1,-5.036461353E-1,-7.715755105E-1,9.796677589E0
3.427633484E1,-5.334391594E-1,-7.661166191E-1,9.777724266E0
3.432633485E1,-5.694754124E-1,-7.668371201E-1,9.792716026E0
3.437633484E1,-5.264364481E-1,-8.059757948E-1,9.795117378E0
3.442633484E1,-5.301679373E-1,-7.426782846E-1,9.740251541E0
3.447633485E1,-5.188552141E-1,-7.380243540E-1,9.821956635E0
3.452633484E1,-5.320703983E-1,-7.632362247E-1,9.761408806E0
3.457633485E1,-5.408465862E-1,-8.005142212E-1,9.807485580E0
3.462633484E1,-5.336356759E-1,-7.911616564E-1,9.804027557E0
3.467633484E1,-5.125829577E-1,-7.715701461E-1,9.781156540E0
3.472633485E1,-5.159484148E-1,-7.743865848E-1,9.801801682E0
3.477633484E1,-5.562764406E-1,-7.700717449E-1,9.770451546E0
3.482633485E1,-5.592383146E-1,-7.626332045E-1,9.798763275E0
3.487633484E1,-5.340310931E-1,-7.613885999E-1,9.787693024E0
3.492633484E1,-4.958353639E-1,-7.678457499E-1,9.811325073E0
3.497633485E1,-5.110650659E-1,-7.781174183E-1,9.786045074E0
3.502633484E1,-5.596124530E-1,-8.089618683E-1,9.776853561E0
3.507633485E1,-5.736471415E-1,-7.924633026E-1,9.783971786E0
3.512633484E1,-5.388147831E-1,-7.578547001E-1,9.804986000E0
3.517633484E1,-5.026851892E-1,-7.361124754E-1,9.788543701E0
3.522633485E1,-4.942116141E-1,-7.574226856E-1,9.789693832E0
3.527633484E1,-5.486288071E-1,-7.861496210E-1,9.797798157E0
3.532633485E1,-5.736446381E-1,-8.086155057E-1,9.779872894E0
3.537633484E1,-5.264263749E-1,-7.816817164E-1,9.791000366E0
3.542633484E1,-5.023164153E-1,-7.730915546E-1,9.781994820E0
3.547633485E1,-5.358585119E-1,-7.771686316E-1,9.801417351E0
3.552633484E1,-5.660908222E-1,-7.515853643E-1,9.775579453E0
3.557633485E1,-5.445516706E-1,-7.434399128E-1,9.801099777E0
3.562633484E1,-5.045605898E-1,-7.844412327E-1,9.794651031E0
3.567633484E1,-4.972344041E-1,-7.918484211E-1,9.791379929E0
3.572633485E1,-5.336506963E-1,-7.980672121E-1,9.774263382E0
3.577633484E1,-5.601054430E-1,-7.947708368E-1,9.800813675E0
3.582633485E1,-5.463088751E-1,-7.557608485E-1,9.788345337E0
3.587633484E1,-5.055923462E-1,-7.384327650E-1,9.802494049E0
3.592633484E1,-5.054911375E-1,-7.665656805E-1,9.800629616E0
3.597633485E1,-5.362818241E-1,-7.906742096E-1,9.787284851E0
3.602633484E1,-5.555126667E-1,-8.085161448E-1,9.791023254E0
3.607633485E1,-5.421784520E-1,-7.796274424E-1,9.789868355E0
3.612633484E1,-5.115398169E-1,-7.505345345E-1,9.789935112E0
3.617633484E1,-5.042327046E-1,-7.632020712E-1,9.807878494E0
3.622633485E1,-5.356082320E-1,-7.821207047E-1,9.795324326E0
3.627633484E1,-5.667605996E-1,-7.850201726E-1,9.776823044E0
3.632633485E1,-5.497502685E-1,-7.814110518E-1,9.797252655E0
3.637633484E1,-5.171606541E-1,-7.610902786E-1,9.794332504E0
3.642633484E1,-4.953357577E-1,-7.685359716E-1,9.821115494E0
3.647633485E1,-5.240812302E-1,-7.833458781E-1,9.795249939E0
3.652633484E1,-5.520315170E-1,-7.904936075E-1,9.786949158E0
3.657633485E1,-5.508860350E-1,-7.794941664E-1,9.802677155E0
3.662633484E1,-5.451231003E-1,-7.514926195E-1,9.734477043E0
3.667633484E1,-5.165475011E-1,-7.634336352E-1,9.775718689E0
3.672633485E1,-5.276014805E-1,-7.773120403E-1,9.815856934E0
3.677633484E1,-5.430266857E-1,-7.834079266E-1,9.789608955E0
3.682633485E1,-5.476568937E-1,-7.910978794E-1,9.762842178E0
3.687633484E1,-5.283068419E-1,-7.674641609E-1,9.837421417E0
3.692633484E1,-5.266792774E-1,-7.550473809E-1,9.780815125E0
3.697633485E1,-5.273783207E-1,-7.702371478E-1,9.782535553E0
3.702633484E1,-5.342342257E-1,-7.860600948E-1,9.794393539E0
3.707633485E1,-5.374100208E-1,-7.834968567E-1,9.770353317E0
3.712633484E1,-5.294785500E-1,-7.678914666E-1,9.798814774E0
3.717633484E1,-5.414474010E-1,-7.499634027E-1,9.788548470E0
3.722633485E1,-5.485336781E-1,-7.756559849E-1,9.751083374E0
3.727633484E1,-5.605584383E-1,-7.851008177E-1,9.772436142E0
3.732633485E1,-5.371370912E-1,-7.688919306E-1,9.796951294E0
3.737633484E1,-5.047163963E-1,-7.628825903E-1,9.813301086E0
3.742633484E1,-5.184808969E-1,-7.638227344E-1,9.783163071E0
3.747633485E1,-5.487374067E-1,-7.846537232E-1,9.791683197E0
3.752633484E1,-5.490554571E-1,-7.903528214E-1,9.805252075E0
3.757633485E1,-5.437872410E-1,-7.756341696E-1,9.733364105E0
3.762633484E1,-5.271126628E-1,-7.574473619E-1,9.803263664E0
3.767633484E1,-5.313827991E-1,-7.564153671E-1,9.783754349E0
3.772633485E1,-5.442832708E-1,-7.789108753E-1,9.779048920E0
3.777633484E1,-5.437779427E-1,-7.891460061E-1,9.796262741E0
3.782633485E1,-5.319383144E-1,-7.746012211E-1,9.786773682E0
3.787633484E1,-5.268933177E-1,-7.614607215E-1,9.784860611E0
3.792633484E1,-5.335631371E-1,-7.631362677E-1,9.795816422E0
3.797633485E1,-5.426598191E-1,-7.764486074E-1,9.785740852E0
3.802633484E1,-5.394310355E-1,-7.847494483E-1,9.784220695E0
3.807633485E1,-5.406314731E-1,-7.832441330E-1,9.787956238E0
3.812633484E1,-5.376261473E-1,-7.663638592E-1,9.794191360E0
3.817633484E1,-5.376517773E-1,-7.597573996E-1,9.785821915E0
3.822633485E1,-5.347013474E-1,-7.679923177E-1,9.788284302E0
3.827633484E1,-5.372822881E-1,-7.828205228E-1,9.791570663E0
3.832633485E1,-5.367923379E-1,-7.807974815E-1,9.790735245E0
3.837633484E1,-5.355627537E-1,-7.684900761E-1,9.791660309E0
3.842633484E1,-5.313622952E-1,-7.609907389E-1,9.786468506E0
3.847633485E1,-5.314258337E-1,-7.695021033E-1,9.789848328E0
3.852633484E1,-5.420548916E-1,-7.771686316E-1,9.785343170E0
3.857633485E1,-5.452973843E-1,-7.792075872E-1,9.789952278E0
3.862633484E1,-5.352385044E-1,-7.713696361E-1,9.793213844E0
3.867633484E1,-5.262128115E-1,-7.669756413E-1,9.794323921E0
3.872633485E1,-5.328415632E-1,-7.709531784E-1,9.787502289E0
3.877633484E1,-5.437798500E-1,-7.784712911E-1,9.785278320E0
3.882633485E1,-5.461099148E-1,-7.785439491E-1,9.790617943E0
3.887633484E1,-5.348744392E-1,-7.706195116E-1,9.787326813E0
3.892633484E1,-5.347985029E-1,-7.647578716E-1,9.792398453E0
3.897633485E1,-5.352566242E-1,-7.722499967E-1,9.792245865E0
3.902633484E1,-5.361999273E-1,-7.791311741E-1,9.785285950E0
3.907633485E1,-5.451440811E-1,-7.705582380E-1,9.787940979E0
3.912633484E1,-5.389699340E-1,-7.698627114E-1,9.781000137E0
3.917633484E1,-5.318948030E-1,-7.808657885E-1,9.787454605E0
3.922633485E1,-5.274931192E-1,-7.830860615E-1,9.784310341E0
3.927633484E1,-5.390886068E-1,-7.772392631E-1,9.789127350E0
3.932633485E1,-5.534143448E-1,-7.569868565E-1,9.800843239E0
3.937633484E1,-5.374420881E-1,-7.626087666E-1,9.779375076E0
3.942633484E1,-5.264012218E-1,-7.671309710E-1,9.782799721E0
3.947633485E1,-5.297382474E-1,-7.916617393E-1,9.825842857E0
3.952633484E1,-5.562330484E-1,-7.642788887E-1,9.782291412E0
3.957633485E1,-5.458007455E-1,-7.644546032E-1,9.770324707E0
3.962633484E1,-5.112975836E-1,-7.844195366E-1,9.803647041E0
3.967633484E1,-5.242367983E-1,-7.689245939E-1,9.791267395E0
3.972633485E1,-5.649247169E-1,-7.552769184E-1,9.774447441E0
3.977633484E1,-5.626386404E-1,-7.723507881E-1,9.800111771E0
3.982633485E1,-5.339566469E-1,-8.023617268E-1,9.751498222E0
3.987633484E1,-4.935383797E-1,-7.664417028E-1,9.807786942E0
3.992633484E1,-5.546541214E-1,-7.214884758E-1,9.800100327E0
3.997633485E1,-5.453042984E-1,-8.065142035E-1,9.784788132E0
4.002633484E1,-5.047026277E-1,-8.517271280E-1,9.778028488E0
4.007633485E1,-5.154109597E-1,-7.874473333E-1,9.799017906E0
4.012633484E1,-5.897932649E-1,-6.635282636E-1,9.802603722E0
4.017633484E1,-5.460352898E-1,-7.192252874E-1,9.785638809E0
4.022633485E1,-4.890572429E-1,-8.550412655E-1,9.770477295E0
4.027633484E1,-5.491834879E-1,-8.738687634E-1,9.789512634E0
4.032633485E1,-5.904766321E-1,-7.630268335E-1,9.780509949E0
4.037633484E1,-4.985182285E-1,-7.409732342E-1,9.804073334E0
4.042633484E1,-4.712050855E-1,-7.076596022E-1,9.784865379E0
4.047633485E1,-5.403665900E-1,-7.751716375E-1,9.804113388E0
4.052633484E1,-6.071043015E-1,-8.374141455E-1,9.760979652E0
4.057633485E1,-5.473480821E-1,-8.057799339E-1,9.789146423E0
4.062633484E1,-4.984786808E-1,-7.577589154E-1,9.777498245E0
4.067633484E1,-4.381262660E-1,-7.786600590E-1,9.779396057E0
4.072633485E1,-5.173458457E-1,-7.673169971E-1,9.823579788E0
4.077633484E1,-5.573713779E-1,-8.321603537E-1,9.756959915E0
4.082633485E1,-6.063318253E-1,-8.311327696E-1,9.795149803E0
4.087633484E1,-5.305472016E-1,-7.328413725E-1,9.820945740E0
4.092633484E1,-2.851704061E-1,-1.050093651E0,9.748254776E0
4.097633485E1,-4.861479402E-1,-6.892188191E-1,9.783525467E0
4.102633484E1,-6.435715556E-1,-6.989308596E-1,9.800290108E0
4.107633485E1,-2.910171747E-1,-9.908250570E-1,9.800186157E0
4.112633484E1,-5.629136562E-1,-8.601990342E-1,9.759994507E0
4.117633484E1,-6.867995262E-1,-6.342228055E-1,9.782676697E0
4.122633485E1,-7.075452805E-1,-4.601052701E-1,9.831731796E0
4.127633484E1,-5.131624937E-1,-8.218657970E-1,9.796034813E0
4.132633485E1,-4.823518395E-1,-8.412744999E-1,9.791375160E0
4.137633484E1,-4.155592918E-1,-9.368895292E-1,9.792833328E0
4.142633484E1,-5.985956788E-1,-6.954556704E-1,9.791082382E0
4.147633485E1,-4.663110375E-1,-8.066883087E-1,9.774033546E0
4.152633484E1,-6.226801872E-1,-6.438503265E-1,9.806645393E0
4.157633485E1,-5.801870823E-1,-7.397265434E-1,9.781570435E0
4.162633484E1,-5.342701077E-1,-8.206837177E-1,9.791465759E0
4.167633484E1,-4.784946442E-1,-8.174647093E-1,9.785903931E0
4.172633485E1,-4.863719344E-1,-8.150606155E-1,9.787508011E0
4.177633484E1,-5.780243874E-1,-8.032966256E-1,9.769506454E0
4.182633485E1,-5.617907047E-1,-7.791222334E-1,9.798455238E0
4.187633484E1,-4.984911680E-1,-7.450703382E-1,9.775281906E0
4.192633484E1,-4.629368782E-1,-7.643282413E-1,9.807219505E0
4.197633485E1,-5.134682655E-1,-8.076200485E-1,9.784997940E0
4.202633484E1,-5.656261444E-1,-8.179168701E-1,9.789081573E0
4.207633485E1,-5.604313612E-1,-8.015052080E-1,9.767940521E0
4.212633484E1,-5.077210069E-1,-7.892426848E-1,9.791455269E0
4.217633484E1,-4.814283550E-1,-7.637745738E-1,9.788473129E0
4.222633485E1,-5.222235322E-1,-7.521328926E-1,9.787943840E0
4.227633484E1,-5.619513392E-1,-7.931805253E-1,9.793024063E0
4.232633485E1,-5.631872416E-1,-8.149064779E-1,9.780643463E0
4.237633484E1,-5.299868584E-1,-8.046016693E-1,9.789777756E0
4.242633484E1,-4.823983312E-1,-7.842702866E-1,9.791921616E0
4.247633485E1,-4.952878952E-1,-7.641885877E-1,9.783732414E0
4.252633484E1,-5.415632725E-1,-7.472938895E-1,9.787384033E0
4.257633485E1,-5.594053864E-1,-8.053573966E-1,9.794651985E0
4.262633484E1,-5.342628956E-1,-8.244743943E-1,9.789673805E0
4.267633484E1,-5.021232367E-1,-8.050035238E-1,9.784961700E0
4.272633485E1,-5.146043897E-1,-7.508828640E-1,9.795361519E0
4.277633484E1,-5.400271416E-1,-7.671357989E-1,9.791418076E0
4.282633485E1,-5.311829448E-1,-8.141698837E-1,9.788987160E0
4.287633484E1,-4.897887707E-1,-8.298219442E-1,9.787057877E0
4.292633484E1,-5.415819883E-1,-7.810450792E-1,9.795475006E0
4.297633485E1,-4.927003980E-1,-8.098740578E-1,9.768798828E0
4.302633484E1,-5.812783241E-1,-7.392563224E-1,9.794143677E0
4.307633485E1,-5.075998306E-1,-7.883566022E-1,9.786828041E0
4.312633484E1,-5.513811111E-1,-7.610571384E-1,9.783523560E0
4.317633484E1,-4.198092818E-1,-8.603875637E-1,9.804636002E0
4.322633485E1,-1.962821931E-1,-9.743918180E-1,9.783108711E0
4.327633484E1,-7.419208288E-1,-7.748764753E-1,9.777290344E0
4.332633485E1,-7.910684347E-1,-6.510667205E-1,9.787662506E0
4.337633484E1,-4.982489347E-1,-7.956982851E-1,9.799211502E0
4.342633484E1,-4.570143819E-1,-7.540471554E-1,9.802024841E0
4.347633485E1,-4.495603442E-1,-7.911452055E-1,9.797829628E0
4.352633484E1,-5.027003884E-1,-8.110204935E-1,9.768705368E0
4.357633485E1,-5.829759836E-1,-7.629357576E-1,9.799749374E0
4.362633484E1,-5.182844400E-1,-8.234264851E-1,9.781660080E0
4.367633484E1,-5.052593946E-1,-7.572628260E-1,9.801166534E0
4.372633485E1,-4.748210311E-1,-7.730317116E-1,9.784461975E0
4.377633484E1,-4.875596166E-1,-7.766803503E-1,9.802669525E0
4.382633485E1,-5.230031013E-1,-7.947005630E-1,9.785919189E0
4.387633484E1,-5.067158341E-1,-8.004326224E-1,9.785093307E0
4.392633484E1,-4.844347835E-1,-7.929124832E-1,9.790124893E0
4.397633485E1,-4.859701991E-1,-7.809134722E-1,9.805002213E0
4.402633484E1,-4.891413748E-1,-7.905122042E-1,9.773784637E0
4.407633485E1,-5.196582079E-1,-7.864292264E-1,9.800357819E0
4.412633484E1,-5.270559192E-1,-7.886713743E-1,9.775938988E0
4.417633484E1,-4.765748382E-1,-8.055570126E-1,9.790528297E0
4.422633485E1,-4.861561060E-1,-7.824277878E-1,9.791718483E0
4.427633484E1,-5.148007870E-1,-7.683856487E-1,9.787786484E0
4.432633485E1,-5.215175748E-1,-7.927925587E-1,9.784690857E0
4.437633484E1,-5.015804172E-1,-8.169749975E-1,9.785016060E0
4.442633484E1,-4.811295867E-1,-8.183277845E-1,9.794403076E0
4.447633485E1,-5.006136894E-1,-7.767968774E-1,9.786934853E0
4.452633484E1,-5.227326155E-1,-7.645446062E-1,9.788995743E0
4.457633485E1,-5.035980344E-1,-7.932192087E-1,9.789716721E0
4.462633484E1,-4.823162556E-1,-8.195165396E-1,9.792112350E0
4.467633484E1,-5.128844976E-1,-7.962617874E-1,9.791110039E0
4.472633485E1,-5.136757493E-1,-7.770397663E-1,9.796924591E0
4.477633484E1,-4.734779596E-1,-7.783326507E-1,9.796407700E0
4.482633485E1,-4.971120954E-1,-7.876703143E-1,9.786891937E0
4.487633484E1,-5.169292688E-1,-8.129097223E-1,9.787427902E0
4.492633484E1,-5.150424838E-1,-8.120487928E-1,9.795997620E0
4.497633485E1,-4.817270041E-1,-7.750802040E-1,9.790237427E0
4.502633484E1,-4.763429761E-1,-7.771465778E-1,9.792606354E0
4.507633485E1,-5.060325861E-1,-7.878426909E-1,9.792657852E0
4.512633484E1,-5.149721503E-1,-7.921276093E-1,9.788932800E0
4.517633484E1,-5.053648353E-1,-8.094303608E-1,9.793699265E0
4.522633485E1,-4.912289381E-1,-7.930294275E-1,9.793140411E0
4.527633484E1,-4.850002527E-1,-7.840784192E-1,9.790463448E0
4.532633485E1,-5.012954473E-1,-7.840770483E-1,9.791244507E0
4.537633484E1,-5.079871416E-1,-7.926898599E-1,9.785670280E0
4.542633484E1,-5.013599396E-1,-8.042527437E-1,9.789403915E0
4.547633485E1,-4.981174469E-1,-7.888899446E-1,9.791525841E0
4.552633484E1,-5.012510419E-1,-7.787183523E-1,9.785927773E0
4.557633485E1,-5.012247562E-1,-7.924212217E-1,9.794773102E0
4.562633484E1,-5.057141781E-1,-7.990691662E-1,9.785200119E0
4.567633484E1,-5.033978224E-1,-7.981265187E-1,9.786766052E0
4.572633485E1,-4.956250489E-1,-7.925374508E-1,9.786878586E0
4.577633484E1,-4.933534861E-1,-7.834631801E-1,9.797525406E0
4.582633485E1,-4.931342006E-1,-7.800261974E-1,9.788230896E0
4.587633484E1,-5.087814331E-1,-7.936066985E-1,9.786380768E0
4.592633484E1,-5.059557557E-1,-8.106148243E-1,9.790960312E0
4.597633485E1,-4.940465987E-1,-7.928428650E-1,9.783597946E0
4.602633484E1,-4.963872731E-1,-7.759951353E-1,9.782854080E0
4.607633485E1,-4.997706711E-1,-7.883489728E-1,9.788302422E0
4.612633484E1,-4.914404750E-1,-7.944984436E-1,9.793659210E0
4.617633484E1,-5.192582607E-1,-7.920652628E-1,9.796216965E0
4.622633485E1,-5.059813261E-1,-8.003999591E-1,9.784299850E0
4.627633484E1,-4.835901260E-1,-7.818241119E-1,9.793345451E0
4.632633485E1,-4.951362908E-1,-7.845984697E-1,9.792541504E0
4.637633484E1,-5.047643781E-1,-8.011151552E-1,9.791345596E0
4.642633484E1,-5.092029572E-1,-7.924242616E-1,9.790733337E0
4.647633485E1,-5.019133091E-1,-7.915415168E-1,9.792003632E0
4.652633484E1,-4.978464842E-1,-7.948635817E-1,9.788677216E0
4.657633485E1,-5.010101795E-1,-7.896361351E-1,9.784381866E0
4.662633484E1,-4.892895818E-1,-7.869048119E-1,9.823533058E0
4.667633484E1,-4.895610213E-1,-7.889187932E-1,9.820972443E0
4.672633485E1,-4.964468181E-1,-7.954988480E-1,9.789628983E0
4.677633484E1,-5.047709346E-1,-7.932803631E-1,9.793319702E0
4.682633485E1,-5.044211149E-1,-7.888140678E-1,9.785495758E0
4.687633484E1,-5.135047436E-1,-7.949686050E-1,9.794957161E0
4.692633484E1,-5.026415586E-1,-7.906505466E-1,9.792848587E0
4.697633485E1,-4.919150174E-1,-7.811022997E-1,9.782663345E0
4.702633484E1,-4.952940941E-1,-7.889209390E-1,9.782306671E0
4.707633485E1,-4.895634651E-1,-7.771917582E-1,9.855352402E0
4.712633484E1,-4.858686924E-1,-8.021262884E-1,9.817016602E0
4.717633484E1,-5.063726902E-1,-8.011739254E-1,9.771743774E0
4.722633485E1,-5.176415443E-1,-7.807872295E-1,9.796835899E0
4.727633484E1,-4.864145517E-1,-7.882255316E-1,9.811555862E0
4.732633485E1,-4.725817442E-1,-7.910685539E-1,9.790931702E0
4.737633484E1,-4.794324636E-1,-7.862004638E-1,9.805465698E0
4.742633484E1,-4.948389530E-1,-8.027333021E-1,9.803949356E0
4.747633485E1,-5.037997961E-1,-8.044110537E-1,9.775299072E0
4.752633484E1,-5.032508969E-1,-7.866914272E-1,9.803690910E0
4.757633485E1,-5.053846240E-1,-7.758389711E-1,9.775849342E0
4.762633484E1,-4.959557652E-1,-7.898564935E-1,9.787322044E0
4.767633484E1,-4.954283834E-1,-7.949416637E-1,9.804318428E0
4.772633485E1,-5.121040344E-1,-8.012021780E-1,9.777108192E0
4.777633484E1,-4.945524335E-1,-7.988576889E-1,9.814054489E0
4.782633485E1,-4.803604484E-1,-7.788661718E-1,9.796356201E0
4.787633484E1,-4.842687845E-1,-7.730506659E-1,9.786521912E0
4.792633484E1,-5.082038045E-1,-8.050714731E-1,9.772200584E0
4.797633485E1,-5.181941986E-1,-7.975127697E-1,9.807457924E0
4.802633484E1,-4.961408377E-1,-7.760064602E-1,9.793516159E0
4.807633485E1,-4.651047587E-1,-7.817852497E-1,9.770074844E0
4.812633484E1,-4.829574227E-1,-8.095611334E-1,9.808753014E0
4.817633484E1,-5.428936481E-1,-8.004888296E-1,9.784402847E0
4.822633485E1,-4.993102551E-1,-7.771815062E-1,9.758776665E0
4.827633484E1,-4.857178330E-1,-8.047357798E-1,9.808280945E0
4.832633485E1,-4.953003526E-1,-8.140160441E-1,9.757852554E0
4.837633484E1,-4.065430164E-1,-7.942701578E-1,9.817144394E0
4.842633484E1,-4.496091604E-1,-7.552748919E-1,9.762753487E0
4.847633485E1,-6.128125191E-1,-7.719573975E-1,9.810783386E0
4.852633484E1,-5.523854494E-1,-8.065872192E-1,9.769418716E0
4.857633485E1,-4.841066897E-1,-8.115853071E-1,9.789005280E0
4.862633484E1,-4.484176040E-1,-7.909687757E-1,9.747844696E0
4.867633484E1,-4.648813903E-1,-7.855266333E-1,9.802463531E0
4.872633485E1,-4.781255722E-1,-8.236617446E-1,9.812448502E0
4.877633484E1,-4.794888198E-1,-8.068855405E-1,9.782613754E0
4.882633485E1,-5.008813739E-1,-8.050829172E-1,9.780185699E0
4.887633484E1,-4.922886491E-1,-7.872780561E-1,9.779950142E0
4.892633484E1,-4.871859550E-1,-7.390775084E-1,9.805335999E0
4.897633485E1,-4.794431329E-1,-7.819734812E-1,9.800743103E0
4.902633484E1,-4.574994147E-1,-8.124187589E-1,9.802646637E0
4.907633485E1,-4.996254742E-1,-7.913562655E-1,9.764744759E0
4.912633484E1,-5.049271584E-1,-8.282378912E-1,9.807117462E0
4.917633484E1,-4.857338667E-1,-8.072873354E-1,9.788379669E0
4.922633485E1,-4.989971220E-1,-7.541436553E-1,9.752771378E0
4.927633484E1,-4.940171838E-1,-7.437020540E-1,9.820430756E0
4.932633485E1,-4.928499460E-1,-7.826021910E-1,9.779829025E0
4.937633484E1,-5.077409148E-1,-8.385537863E-1,9.776261330E0
4.942633485E1,-4.622716904E-1,-8.786431551E-1,9.793200493E0
4.947633485E1,-4.749064445E-1,-7.823051810E-1,9.773481369E0
4.952633484E1,-4.736994505E-1,-7.420166731E-1,9.817353249E0
4.957633485E1,-5.041186213E-1,-7.740612626E-1,9.782806396E0
4.962633484E1,-4.999412596E-1,-8.256803751E-1,9.813964844E0
4.967633485E1,-4.920793772E-1,-8.436925411E-1,9.778112411E0
4.972633485E1,-4.664836526E-1,-7.899794579E-1,9.803483963E0
4.977633484E1,-5.053984523E-1,-7.457706332E-1,9.798425674E0
4.982633485E1,-5.412241817E-1,-7.970702648E-1,9.787181854E0
4.987633484E1,-4.615140855E-1,-8.363872170E-1,9.783937454E0
4.992633485E1,-4.368234277E-1,-8.021126986E-1,9.787332535E0
4.997633485E1,-4.968636036E-1,-7.587697506E-1,9.790270805E0
5.002633484E1,-5.308619738E-1,-7.697172165E-1,9.788497925E0
5.007633485E1,-5.079902411E-1,-7.917135954E-1,9.794889450E0
5.012633484E1,-4.485038519E-1,-8.275699615E-1,9.802005768E0
5.017633485E1,-4.655606747E-1,-8.251424432E-1,9.777893066E0
5.022633485E1,-4.956316352E-1,-7.651510239E-1,9.793475151E0
5.027633484E1,-5.153679848E-1,-7.587603331E-1,9.809149742E0
5.032633485E1,-5.055943727E-1,-7.881327868E-1,9.764006615E0
5.037633484E1,-4.448623657E-1,-8.234624863E-1,9.787893295E0
5.042633485E1,-4.765806794E-1,-8.061033487E-1,9.790340424E0
5.047633485E1,-5.326505303E-1,-7.776653767E-1,9.799598694E0
5.052633484E1,-5.119537711E-1,-7.768968344E-1,9.783345222E0
5.057633485E1,-4.466807842E-1,-7.986260653E-1,9.808818817E0
5.062633484E1,-4.716640413E-1,-8.106977344E-1,9.783911705E0
5.067633485E1,-5.182604194E-1,-8.013396263E-1,9.788782120E0
5.072633485E1,-5.348456502E-1,-7.745108604E-1,9.782924652E0
5.077633484E1,-4.949405491E-1,-7.654670477E-1,9.789717674E0
5.082633485E1,-4.429567456E-1,-8.056788445E-1,9.794557571E0
5.087633484E1,-4.518900514E-1,-8.370686173E-1,9.776657104E0
5.092633485E1,-5.257135630E-1,-7.965788841E-1,9.786710739E0
5.097633485E1,-5.279808044E-1,-7.668292522E-1,9.751032829E0
5.102633484E1,-4.734390378E-1,-7.736301422E-1,9.797311783E0
5.107633485E1,-4.497115612E-1,-7.970952392E-1,9.784973145E0
5.112633484E1,-4.749130011E-1,-8.203142881E-1,9.805731773E0
5.117633485E1,-5.011402369E-1,-8.028581142E-1,9.765150070E0
5.122633485E1,-5.155066252E-1,-7.892718315E-1,9.792892456E0
5.127633484E1,-4.800837934E-1,-7.840902805E-1,9.797360420E0
5.132633485E1,-4.657152891E-1,-7.769452333E-1,9.788585663E0
5.137633484E1,-4.861586392E-1,-8.037966490E-1,9.789976120E0
5.142633485E1,-5.113104582E-1,-8.103716373E-1,9.785305977E0
5.147633485E1,-5.168843269E-1,-8.025938272E-1,9.812124252E0
5.152633484E1,-5.013859868E-1,-7.695982456E-1,9.775335312E0
5.157633485E1,-4.495577216E-1,-7.641289234E-1,9.800796509E0
5.162633484E1,-4.613202810E-1,-8.148673773E-1,9.815128326E0
5.167633485E1,-5.132488012E-1,-8.178584576E-1,9.761102676E0
5.172633485E1,-5.058786273E-1,-7.877540588E-1,9.773729324E0
5.177633484E1,-4.613450170E-1,-7.611945868E-1,9.832921028E0
5.182633485E1,-4.796682596E-1,-7.913172245E-1,9.776517868E0
5.187633484E1,-5.029652715E-1,-8.274142146E-1,9.784880638E0
5.192633485E1,-5.107655525E-1,-8.011780977E-1,9.790360451E0
5.197633485E1,-4.809571505E-1,-7.907841206E-1,9.795120239E0
5.202633484E1,-4.711673260E-1,-7.822217941E-1,9.787347794E0
5.207633485E1,-5.053927302E-1,-8.180617094E-1,9.794521332E0
5.212633484E1,-5.084631443E-1,-7.901350260E-1,9.793463707E0
5.217633485E1,-4.798415899E-1,-7.683612704E-1,9.793319702E0
5.222633485E1,-4.590084553E-1,-7.801003456E-1,9.788366318E0
5.227633484E1,-4.783331454E-1,-8.197416067E-1,9.804573059E0
5.232633485E1,-4.954025149E-1,-8.280373812E-1,9.782993317E0
5.237633484E1,-5.048663616E-1,-7.983592749E-1,9.791916847E0
5.242633485E1,-4.915038347E-1,-7.648032308E-1,9.784469604E0
5.247633485E1,-4.786826372E-1,-7.818998098E-1,9.804536819E0
5.252633484E1,-4.742156267E-1,-7.899864912E-1,9.806152344E0
5.257633485E1,-4.852086306E-1,-7.859346867E-1,9.775050163E0
5.262633484E1,-4.712085128E-1,-8.059297800E-1,9.824137688E0
5.267633485E1,-4.792249203E-1,-8.015987873E-1,9.759370804E0
5.272633485E1,-4.852808714E-1,-7.820310593E-1,9.792968750E0
5.277633484E1,-5.324231386E-1,-7.930002213E-1,9.689702988E0
5.282633485E1,-5.113183260E-1,-8.067384362E-1,9.779767990E0
5.287633484E1,-5.263756514E-1,-8.081934452E-1,9.788288116E0
5.292633485E1,-5.047546625E-1,-7.706446648E-1,9.770019531E0
5.297633485E1,-4.694505334E-1,-7.572331429E-1,9.796195984E0
5.302633484E1,-4.954913259E-1,-7.832354903E-1,9.788677216E0
5.307633485E1,-4.955540895E-1,-8.321231604E-1,9.778887749E0
5.312633484E1,-4.924154282E-1,-8.261440396E-1,9.787862778E0
5.317633485E1,-4.897621274E-1,-7.766482830E-1,9.788674355E0
5.322633485E1,-4.900564551E-1,-7.595047355E-1,9.796842575E0
5.327633484E1,-4.667319655E-1,-7.747836113E-1,9.920124054E0
5.332633485E1,-4.918279648E-1,-8.205844164E-1,9.862433434E0
5.337633484E1,-5.143550634E-1,-8.457527161E-1,9.773008347E0
5.342633485E1,-4.932959676E-1,-8.048918247E-1,9.774599075E0
5.347633485E1,-4.914211631E-1,-7.604504824E-1,9.822329521E0
5.352633484E1,-4.819093943E-1,-7.515174747E-1,9.772956848E0
5.357633485E1,-4.780994654E-1,-7.798855305E-1,9.794831276E0
5.362633484E1,-5.161909461E-1,-8.084305525E-1,9.803857803E0
5.367633485E1,-5.268429518E-1,-8.375089169E-1,9.780432701E0
5.372633485E1,-4.703584313E-1,-8.128527403E-1,9.784576416E0
5.377633484E1,-4.625532925E-1,-7.564110756E-1,9.786687851E0
5.382633485E1,-4.690579176E-1,-7.566898465E-1,9.810179710E0
5.387633484E1,-4.933541119E-1,-7.979037166E-1,9.791022301E0
5.392633485E1,-5.023074746E-1,-8.394068480E-1,9.777708054E0
5.397633485E1,-4.928929210E-1,-8.039541245E-1,9.781194687E0
5.402633484E1,-4.702510238E-1,-7.470465302E-1,9.784442902E0
5.407633485E1,-4.546362162E-1,-7.940866947E-1,9.783256531E0
5.412633484E1,-4.812754095E-1,-8.406314850E-1,9.811822891E0
5.417633485E1,-5.144451857E-1,-8.135555983E-1,9.796827316E0
5.422633485E1,-4.963563085E-1,-7.743387222E-1,9.805521965E0
5.427633484E1,-4.704411030E-1,-7.704825401E-1,9.790847778E0
5.432633485E1,-4.600698948E-1,-7.739213705E-1,9.790091515E0
5.437633484E1,-4.672249556E-1,-8.125708103E-1,9.792705536E0
5.442633485E1,-5.106096268E-1,-8.379459381E-1,9.784654617E0
5.447633485E1,-5.058260560E-1,-8.157587051E-1,9.796493530E0
5.452633484E1,-4.881882071E-1,-7.600445747E-1,9.780365944E0
5.457633485E1,-4.729155004E-1,-7.586703300E-1,9.805339813E0
5.462633484E1,-4.563971460E-1,-7.994431257E-1,9.768289566E0
5.467633485E1,-4.771123230E-1,-8.111090660E-1,9.789264679E0
5.472633485E1,-4.992156327E-1,-8.081762195E-1,9.806067467E0
5.477633484E1,-5.191391110E-1,-7.603539824E-1,9.803213120E0
5.482633485E1,-4.705460072E-1,-8.166854978E-1,9.744334221E0
5.487633484E1,-4.568061233E-1,-8.264353275E-1,9.805694580E0
5.492633485E1,-4.962865114E-1,-8.029679656E-1,9.765592575E0
5.497633485E1,-5.004090071E-1,-7.653821707E-1,9.832359314E0
5.502633484E1,-4.823275506E-1,-7.651967406E-1,9.779109955E0
5.507633485E1,-4.660184085E-1,-8.083976507E-1,9.791988373E0
5.512633484E1,-5.042029023E-1,-8.096123934E-1,9.780039787E0
5.517633485E1,-4.975731969E-1,-8.396784067E-1,9.804179192E0
5.522633485E1,-5.043399334E-1,-7.834755182E-1,9.792046547E0
5.527633484E1,-4.385927022E-1,-7.621735334E-1,9.810281754E0
5.532633399E1,-4.314014912E-1,-8.212917447E-1,9.768951416E0
5.537633399E1,-4.851288795E-1,-7.814006805E-1,9.799051285E0
5.542633399E1,-4.997715652E-1,-7.833061814E-1,9.786300659E0
5.547633399E1,-4.595912099E-1,-8.050704002E-1,9.790653229E0
5.552633399E1,-4.592968225E-1,-8.319026232E-1,9.778989792E0
5.557633399E1,-3.938391805E-1,-8.422757387E-1,9.814062119E0
5.562633399E1,-4.774058759E-1,-8.104397058E-1,9.837398529E0
5.567633399E1,-4.300942421E-1,-7.717282772E-1,9.784624100E0
5.572633399E1,-3.501685262E-1,-8.419561386E-1,9.793766975E0
5.577633399E1,-3.640219569E-1,-8.459342718E-1,9.785226822E0
5.582633399E1,-3.537031710E-1,-8.122929931E-1,9.817110062E0
5.587633399E1,-3.328799009E-1,-8.250834346E-1,9.813225746E0
5.592633399E1,-4.509322047E-1,-7.966634035E-1,9.754867554E0
5.597633399E1,-3.996457756E-1,-8.446171284E-1,9.808645248E0
5.602633399E1,-3.523542285E-1,-8.689670563E-1,9.789867401E0
5.607633399E1,-4.329820275E-1,-7.138599157E-1,9.711891174E0
5.612633399E1,-3.411631882E-1,-8.715927601E-1,9.782971382E0
5.617633399E1,-4.039996266E-1,-8.194773197E-1,9.780655861E0
5.622633399E1,-3.770955205E-1,-8.262791634E-1,9.830642700E0
5.627633399E1,-3.795726895E-1,-8.509256840E-1,9.794528961E0
5.632633399E1,-3.625841737E-1,-8.521955013E-1,9.788440704E0
5.637633399E1,-4.044113457E-1,-7.499662638E-1,9.818868637E0
5.642633399E1,-4.049051404E-1,-8.049362898E-1,9.799365997E0
5.647633399E1,-4.163814187E-1,-8.266029954E-1,9.755315781E0
5.652633399E1,-4.102919698E-1,-8.437752724E-1,9.794025421E0
5.657633399E1,-4.004768133E-1,-8.259186745E-1,9.830112457E0
5.662633399E1,-5.569399595E-1,-7.691138983E-1,9.760391235E0
5.667633399E1,-4.477624893E-1,-7.982575893E-1,9.800884247E0
5.672633399E1,-4.993610978E-1,-7.792183161E-1,9.776668549E0
5.677633399E1,-4.518240988E-1,-8.263428211E-1,9.791366577E0
5.682633399E1,-4.852844477E-1,-8.140792847E-1,9.794938087E0
5.687633399E1,-4.438100457E-1,-7.936667204E-1,9.792711258E0
5.692633399E1,-4.511224627E-1,-7.877763510E-1,9.802941322E0
5.697633399E1,-4.383789301E-1,-8.167628050E-1,9.797208786E0
5.702633399E1,-4.379135668E-1,-8.555595279E-1,9.787471771E0
5.707633399E1,-4.789782166E-1,-7.956180573E-1,9.797073364E0
5.712633399E1,-5.227000713E-1,-7.467179298E-1,9.774160385E0
5.717633399E1,-5.633125305E-1,-7.666193843E-1,9.781056404E0
5.722633399E1,-3.927222490E-1,-8.507153392E-1,9.805154800E0
5.727633399E1,-4.633790255E-1,-8.818764687E-1,9.769918442E0
5.732633399E1,-3.962045312E-1,-8.653941154E-1,9.798066139E0
5.737633399E1,-3.814169765E-1,-7.622228265E-1,9.815214157E0
5.742633399E1,-3.109505177E-1,-7.359228730E-1,9.806226730E0
5.747633399E1,-4.376735091E-1,-7.398419380E-1,9.780373573E0
5.752633399E1,-3.774261475E-1,-8.777016401E-1,9.812798500E0
5.757633399E1,-5.079035759E-1,-8.644035459E-1,9.741544724E0
5.762633399E1,-3.133030534E-1,-7.325380445E-1,9.801147461E0
5.767633399E1,-3.535202742E-1,-7.237584591E-1,9.815977097E0
5.772633399E1,-3.855105042E-1,-8.498060703E-1,9.811637878E0
5.777633399E1,-5.562315583E-1,-8.193469048E-1,9.989393234E0
5.782633399E1,-6.017620564E-1,-9.193478227E-1,9.727409363E0
5.787633399E1,-4.977377653E-1,-8.713724017E-1,9.790077209E0
5.792633399E1,-4.511463642E-1,-6.622279882E-1,9.772653580E0
5.797633399E1,-4.024641216E-1,-6.477186680E-1,9.838358879E0
5.802633399E1,-5.121272802E-1,-7.474719286E-1,9.767741203E0
5.807633399E1,-5.560154915E-1,-9.181506634E-1,9.761625290E0
5.812633399E1,-5.075933933E-1,-9.146295190E-1,9.873370171E0
5.817633399E1,-4.710504413E-1,-8.042551279E-1,9.768131256E0
5.822633399E1,-3.826752305E-1,-7.453436852E-1,9.828082085E0
5.827633399E1,-4.925856888E-1,-7.199451327E-1,9.772113800E0
5.832633399E1,-5.537362099E-1,-7.972931862E-1,9.800716400E0
5.837633399E1,-5.202360153E-1,-8.753255010E-1,9.795309067E0
5.842633399E1,-4.774550796E-1,-8.424409628E-1,9.801928520E0
5.847633399E1,-4.371334910E-1,-8.078333139E-1,9.782005310E0
5.852633399E1,-4.496819377E-1,-7.332284451E-1,9.797285080E0
5.857633399E1,-5.241284966E-1,-7.232714295E-1,9.794080734E0
5.862633399E1,-5.538603067E-1,-8.045830131E-1,9.770251274E0
5.867633399E1,-5.288323164E-1,-8.471484184E-1,9.792843819E0
5.872633399E1,-5.015677810E-1,-8.098901510E-1,9.762712479E0
5.877633399E1,-4.950114489E-1,-7.660355568E-1,9.787757874E0
5.882633399E1,-5.259191990E-1,-7.503392696E-1,9.796081543E0
5.887633399E1,-5.131134391E-1,-7.706075907E-1,9.771685600E0
5.892633399E1,-4.498090148E-1,-8.285942078E-1,9.823854446E0
5.897633399E1,-5.104844570E-1,-8.326938152E-1,9.762465477E0
5.902633399E1,-5.148109198E-1,-7.807310820E-1,9.811777115E0
5.907633399E1,-5.204351544E-1,-7.528343201E-1,9.811958313E0
5.912633399E1,-4.986099005E-1,-7.538574934E-1,9.762655258E0
5.917633399E1,-4.740750790E-1,-8.366818428E-1,9.812443733E0
5.922633399E1,-5.162705183E-1,-8.433762193E-1,9.756343842E0
5.927633399E1,-2.853568196E-1,-8.397371769E-1,9.860061646E0
5.932633399E1,-6.590558887E-1,-7.205801606E-1,9.684742928E0
5.937633399E1,-3.584617376E-1,-7.794077396E-1,9.846759796E0
5.942633399E1,-5.662949681E-1,-7.809646130E-1,9.777639389E0
5.947633399E1,-4.472957850E-1,-9.004642367E-1,9.795587540E0
5.952633399E1,-4.446496367E-1,-8.086099625E-1,9.778278351E0
5.957633399E1,-3.804062307E-1,-7.669215202E-1,9.812507629E0
5.962633399E1,-3.922999501E-1,-7.834192514E-1,9.783156395E0
5.967633399E1,-3.570162952E-1,-8.655511141E-1,9.799286842E0
5.972633399E1,-2.976896763E-1,-8.995524049E-1,9.809911728E0
5.977633399E1,-3.612996340E-1,-8.301885724E-1,9.796340942E0
5.982633399E1,-3.647005856E-1,-8.027586937E-1,9.796270370E0
5.987633399E1,-4.410057366E-1,-7.515444756E-1,9.801267624E0
5.992633399E1,-3.333133459E-1,-8.076140881E-1,9.800027847E0
5.997633399E1,-4.695956111E-1,-8.360694647E-1,9.791009903E0
6.002633399E1,-3.579409719E-1,-8.639049530E-1,9.799724579E0
6.007633399E1,-4.636105299E-1,-8.087787628E-1,9.787667274E0
6.012633399E1,-4.686581790E-1,-7.975393534E-1,9.783895493E0
6.017633399E1,-3.994160891E-1,-7.883344889E-1,9.804113388E0
6.022633399E1,-4.769492745E-1,-8.021989465E-1,9.771610260E0
6.027633399E1,-4.192984700E-1,-8.231900334E-1,9.801153183E0
6.032633399E1,-4.456892610E-1,-7.870715857E-1,9.790342331E0
6.037633399E1,-4.254867733E-1,-7.914966941E-1,9.815809250E0
6.042633399E1,-4.623866677E-1,-8.277732134E-1,9.751900673E0
6.047633399E1,-3.617595732E-1,-8.522368670E-1,9.834414482E0
6.052633399E1,-4.156415761E-1,-8.306875229E-1,9.780507088E0
6.057633399E1,-3.833783865E-1,-7.973871231E-1,9.778029442E0
6.062633399E1,-4.085702598E-1,-8.026296496E-1,9.781685829E0
6.067633399E1,-4.466217458E-1,-8.295313120E-1,9.774165154E0
6.072633399E1,-4.141824245E-1,-8.304696679E-1,9.790975571E0
6.077633399E1,-2.552399337E-1,-8.432238102E-1,9.811544418E0
6.082633399E1,-3.274663687E-1,-8.007022142E-1,9.808520317E0
6.087633399E1,-2.844292819E-1,-8.208197951E-1,9.780174255E0
6.092633399E1,-3.657575846E-1,-8.403310776E-1,9.798566818E0
6.097633399E1,-3.316147327E-1,-8.894860744E-1,9.811185837E0
6.102633399E1,-3.640068173E-1,-8.367458582E-1,9.792160034E0
6.107633399E1,-3.583252728E-1,-7.991676331E-1,9.769844055E0
6.112633399E1,-4.209981859E-1,-7.772451639E-1,9.786712646E0
6.117633399E1,-3.861615658E-1,-8.249975443E-1,9.833191872E0
6.122633399E1,-3.662813008E-1,-8.256486654E-1,9.821455002E0
6.127633399E1,-4.115715623E-1,-8.255433440E-1,9.769784927E0
6.132633399E1,-3.952433467E-1,-8.207945824E-1,9.813280106E0
6.137633399E1,-4.259143472E-1,-8.020579815E-1,9.788103104E0
6.142633399E1,-4.329254031E-1,-7.754628062E-1,9.775313377E0
6.147633399E1,-4.461950660E-1,-7.965383530E-1,9.824583054E0
6.152633399E1,-4.979928434E-1,-7.844610214E-1,9.783374786E0
6.157633399E1,-5.102961659E-1,-8.160163760E-1,9.765406609E0
6.162633399E1,-4.771325588E-1,-8.004099727E-1,9.805007935E0
6.167633399E1,-4.862686992E-1,-7.662820220E-1,9.802269936E0
6.172633399E1,-4.419649839E-1,-8.271406889E-1,9.801568031E0
6.177633399E1,-4.739392996E-1,-8.307048082E-1,9.760808945E0
6.182633399E1,-4.974817634E-1,-7.909559011E-1,9.809900284E0
6.187633399E1,-5.238559246E-1,-7.707895041E-1,9.780229568E0
6.192633399E1,-5.045812726E-1,-7.934001684E-1,9.798290253E0
6.197633399E1,-5.084099770E-1,-7.951323390E-1,9.774950027E0
6.202633399E1,-5.191344023E-1,-7.772033215E-1,9.763760567E0
6.207633399E1,-4.842332006E-1,-7.954757214E-1,9.798137665E0
6.212633399E1,-4.148237109E-1,-7.977848053E-1,9.814700127E0
6.217633399E1,-3.715887666E-1,-8.084548712E-1,9.799558640E0
6.222633399E1,-3.398352265E-1,-8.710572124E-1,9.797590256E0
6.227633399E1,-3.459109664E-1,-8.850408792E-1,9.806701660E0
6.232633399E1,-4.050471187E-1,-8.056878448E-1,9.819221497E0
6.237633399E1,-4.523516893E-1,-7.586269975E-1,9.765775681E0
6.242633399E1,-3.940638304E-1,-7.940587997E-1,9.790689468E0
6.247633399E1,-4.244997501E-1,-8.024387360E-1,9.793096542E0
6.252633399E1,-4.290320575E-1,-8.408983946E-1,9.792521477E0
6.257633399E1,-4.566897750E-1,-8.189063072E-1,9.794297218E0
6.262633399E1,-4.462796450E-1,-8.076660037E-1,9.799096107E0
6.267633399E1,-4.019214213E-1,-8.100882769E-1,9.778717041E0
6.272633399E1,-4.082697034E-1,-7.807853222E-1,9.796102524E0
6.277633399E1,-4.203595519E-1,-7.788156867E-1,9.797570229E0
6.282633399E1,-4.163123369E-1,-8.195412755E-1,9.800287247E0
6.287633399E1,-4.614039063E-1,-8.477872610E-1,9.795509338E0
6.292633399E1,-3.840322196E-1,-8.794792891E-1,9.797712326E0
6.297633399E1,-4.275970459E-1,-7.970403433E-1,9.793874741E0
6.302633399E1,-3.807165325E-1,-7.752115726E-1,9.804958344E0
6.307633399E1,-4.158971310E-1,-7.669298053E-1,9.797552109E0
6.312633399E1,-4.446885586E-1,-8.167672157E-1,9.820306778E0
6.317633399E1,-4.979427755E-1,-8.124241829E-1,9.785099030E0
6.322633399E1,-4.704577923E-1,-8.100706935E-1,9.791382790E0
6.327633399E1,-4.941620231E-1,-7.921373844E-1,9.758388519E0
6.332633399E1,-5.052773952E-1,-7.529550791E-1,9.826646805E0
6.337633399E1,-5.219107866E-1,-7.673295736E-1,9.774017334E0
6.342633399E1,-5.295554996E-1,-8.166456223E-1,9.805459023E0
6.347633399E1,-5.132821798E-1,-8.072611094E-1,9.752429008E0
6.352633399E1,-4.962123632E-1,-8.048284650E-1,9.819643021E0
6.357633399E1,-4.727284312E-1,-7.814104557E-1,9.810337067E0
6.362633399E1,-5.026388168E-1,-7.829788923E-1,9.777115822E0
6.367633399E1,-5.502921343E-1,-8.129494190E-1,9.788494110E0
6.372633399E1,-5.552310348E-1,-8.112136126E-1,9.785346985E0
6.377633399E1,-5.257793665E-1,-7.870433331E-1,9.785889626E0
6.382633399E1,-5.035291910E-1,-7.736935616E-1,9.796671867E0
6.387633399E1,-5.124185085E-1,-7.765956521E-1,9.792657852E0
6.392633399E1,-5.364520550E-1,-7.991250753E-1,9.793439865E0
6.397633399E1,-5.445603728E-1,-8.143904209E-1,9.791046143E0
6.402633399E1,-5.253795385E-1,-7.900983095E-1,9.782721519E0
6.407633399E1,-5.013724566E-1,-7.746452093E-1,9.800615311E0
6.412633399E1,-5.102289915E-1,-7.847527862E-1,9.787549973E0
6.417633399E1,-5.292578936E-1,-8.159952164E-1,9.793329239E0
6.422633399E1,-5.361971855E-1,-8.114380836E-1,9.785392761E0
6.427633399E1,-5.431151390E-1,-7.843450308E-1,9.791227341E0
6.432633399E1,-5.292672515E-1,-7.702345848E-1,9.790208817E0
6.437633399E1,-5.115860701E-1,-7.770662308E-1,9.785416603E0
6.442633399E1,-5.182850361E-1,-8.019643426E-1,9.786231995E0
6.447633399E1,-5.423140526E-1,-8.102717996E-1,9.796001434E0
6.452633399E1,-5.303128958E-1,-7.993921638E-1,9.791980743E0
6.457633399E1,-5.110317469E-1,-7.894366980E-1,9.789871216E0
6.462633399E1,-5.221536160E-1,-7.864727974E-1,9.791001320E0
6.467633399E1,-5.390771031E-1,-7.837126255E-1,9.787034988E0
6.472633399E1,-5.402370095E-1,-7.957820892E-1,9.764857292E0
6.477633399E1,-5.284876823E-1,-7.994469404E-1,9.783578873E0
6.482633399E1,-5.174029469E-1,-7.931646109E-1,9.808954239E0
6.487633399E1,-5.126672983E-1,-7.845096588E-1,9.793286324E0
6.492633399E1,-5.108554959E-1,-8.041415811E-1,9.772012711E0
6.497633399E1,-5.512760282E-1,-7.784783840E-1,9.764419556E0
6.502633399E1,-5.617437363E-1,-8.321005702E-1,9.784374237E0
6.507633399E1,-5.602142811E-1,-8.337736130E-1,9.795124054E0
6.512633399E1,-5.321574807E-1,-7.746772766E-1,9.790735245E0
6.517633399E1,-5.092120171E-1,-7.300641537E-1,9.795017242E0
6.522633399E1,-5.107966065E-1,-7.851294279E-1,9.790503502E0
6.527633399E1,-5.391761065E-1,-8.007348776E-1,9.801208496E0
6.532633399E1,-5.502966046E-1,-8.487370014E-1,9.784604073E0
6.537633399E1,-5.383731723E-1,-7.972244024E-1,9.777688980E0
6.542633399E1,-5.169467330E-1,-7.610313892E-1,9.792412758E0
6.547633399E1,-5.157526731E-1,-7.560228109E-1,9.784078598E0
6.552633399E1,-5.273828506E-1,-7.906910181E-1,9.796262741E0
6.557633399E1,-5.411281586E-1,-8.133513927E-1,9.791698456E0
6.562633399E1,-5.363013744E-1,-8.118303418E-1,9.787454605E0
6.567633399E1,-5.245018005E-1,-7.849904299E-1,9.788900375E0
6.572633399E1,-5.134369731E-1,-7.618929148E-1,9.785043716E0
6.577633399E1,-5.233769417E-1,-7.797225118E-1,9.793730736E0
6.582633399E1,-5.395668745E-1,-8.027330637E-1,9.788478851E0
6.587633399E1,-5.388349891E-1,-8.035594225E-1,9.789835930E0
6.592633399E1,-5.356357098E-1,-7.873700261E-1,9.791418076E0
6.597633399E1,-5.124613047E-1,-7.720977068E-1,9.791111946E0
6.602633399E1,-5.198982954E-1,-7.787953615E-1,9.786623955E0
6.607633399E1,-5.483234525E-1,-7.714313269E-1,9.833650589E0
6.612633399E1,-5.435645580E-1,-7.221873999E-1,9.744374275E0
6.617633399E1,-5.356838703E-1,-8.239674568E-1,9.809676170E0
6.622633399E1,-5.012483001E-1,-7.951145768E-1,9.789489746E0
6.627633399E1,-5.118909478E-1,-7.852567434E-1,9.801524162E0
6.632633399E1,-5.168427229E-1,-7.697525024E-1,9.757833481E0
6.637633399E1,-5.621724725E-1,-7.310497761E-1,9.820617676E0
6.642633399E1,-5.417138338E-1,-7.810269594E-1,9.776706696E0
6.647633399E1,-5.592331886E-1,-7.730427980E-1,9.816982269E0
6.652633399E1,-5.641759634E-1,-7.980532646E-1,9.810213089E0
6.657633399E1,-4.908742011E-1,-8.179640770E-1,9.728250504E0
6.662633399E1,-4.269649386E-1,-7.599635720E-1,9.789288521E0
6.667633399E1,-5.958754420E-1,-8.166527748E-1,9.768042564E0
6.672633399E1,-6.359117627E-1,-7.259197235E-1,9.788396835E0
6.677633399E1,-6.208273172E-1,-5.875467062E-1,9.800623894E0
6.682633399E1,-4.996255040E-1,-7.971779108E-1,9.798084259E0
6.687633399E1,-4.940975904E-1,-7.823114395E-1,9.802738190E0
6.692633399E1,-5.455011129E-1,-7.828927636E-1,9.775014877E0
6.697633399E1,-5.805772543E-1,-8.053202033E-1,9.783914566E0
6.702633399E1,-5.064743757E-1,-7.878774405E-1,9.799862862E0
6.707633399E1,-4.767608047E-1,-7.693142891E-1,9.806610107E0
6.712633399E1,-5.148038864E-1,-7.766132951E-1,9.789518356E0
6.717633399E1,-5.611786842E-1,-7.760292292E-1,9.787951469E0
6.722633399E1,-5.700110197E-1,-7.799952030E-1,9.795436859E0
6.727633399E1,-5.345959663E-1,-7.786922455E-1,9.788879395E0
6.732633399E1,-5.049362779E-1,-7.741650343E-1,9.792119026E0
6.737633399E1,-5.123374462E-1,-7.769605517E-1,9.791454315E0
6.742633399E1,-5.579716563E-1,-7.812232375E-1,9.792551041E0
6.747633399E1,-5.552075505E-1,-7.834644914E-1,9.784716606E0
6.752633399E1,-5.351704359E-1,-7.754672766E-1,9.792551041E0
6.757633399E1,-5.240873694E-1,-7.942965031E-1,9.823664665E0
6.762633399E1,-5.139828324E-1,-7.329674363E-1,9.777096748E0
6.767633399E1,-5.514212847E-1,-7.994477749E-1,9.805786133E0
6.772633399E1,-5.477289557E-1,-7.798919678E-1,9.793329239E0
6.777633399E1,-4.899234176E-1,-8.346545696E-1,9.811782837E0
6.782633399E1,-5.188726187E-1,-7.952026725E-1,9.797183037E0
6.787633399E1,-5.646023750E-1,-7.439439297E-1,9.792705536E0
6.792633399E1,-5.375182629E-1,-7.625101805E-1,9.814248085E0
6.797633399E1,-5.053563714E-1,-7.869749069E-1,9.794608116E0
6.802633399E1,-4.994236827E-1,-7.828197479E-1,9.792299271E0
6.807633399E1,-5.350326300E-1,-7.576400638E-1,9.779977798E0
6.812633399E1,-5.491741896E-1,-7.770193815E-1,9.812458038E0
6.817633399E1,-5.396543741E-1,-7.956887484E-1,9.793518066E0
6.822633399E1,-5.336730480E-1,-7.903317213E-1,9.784473419E0
6.827633399E1,-5.210720897E-1,-7.706748247E-1,9.796836853E0
6.832633399E1,-5.270887613E-1,-7.597347498E-1,9.791410446E0
6.837633399E1,-5.421366692E-1,-7.721042633E-1,9.786954880E0
6.842633399E1,-5.414104462E-1,-7.943539023E-1,9.792857170E0
6.847633399E1,-5.283588171E-1,-7.914651632E-1,9.786962509E0
6.852633399E1,-5.273966789E-1,-7.794810534E-1,9.791938782E0
6.857633399E1,-5.373520851E-1,-7.605326772E-1,9.795890808E0
6.862633399E1,-5.372983217E-1,-7.644495964E-1,9.786181450E0
6.867633399E1,-5.324664116E-1,-7.883216739E-1,9.794481277E0
6.872633399E1,-5.403389931E-1,-7.924344540E-1,9.789072037E0
6.877633399E1,-5.429305434E-1,-7.826866508E-1,9.796062469E0
6.882633399E1,-5.309532881E-1,-7.618458271E-1,9.792245865E0
6.887633399E1,-5.269637108E-1,-7.636638880E-1,9.792486191E0
6.892633399E1,-5.343974829E-1,-7.840154171E-1,9.793339729E0
6.897633399E1,-5.462360382E-1,-7.903784513E-1,9.786769867E0
6.902633399E1,-5.443371534E-1,-7.772024870E-1,9.785356522E0
6.907633399E1,-5.293425918E-1,-7.739007473E-1,9.786878586E0
6.912633399E1,-5.193949938E-1,-7.744899988E-1,9.788696289E0
6.917633399E1,-5.400747657E-1,-7.738825083E-1,9.788800240E0
6.922633399E1,-5.477876663E-1,-7.778118849E-1,9.791456223E0
6.927633399E1,-5.351150036E-1,-7.785886526E-1,9.792124748E0
6.932633399E1,-5.226511955E-1,-7.756239176E-1,9.791395187E0
6.937633399E1,-5.330240726E-1,-7.786731124E-1,9.785358429E0
6.942633399E1,-5.567566752E-1,-7.930365801E-1,9.795330048E0
6.947633399E1,-5.498467684E-1,-7.837239504E-1,9.792739868E0
6.952633399E1,-4.975150824E-1,-7.447113395E-1,9.792951584E0
6.957633399E1,-5.052654147E-1,-7.589625120E-1,9.792343140E0
6.962633399E1,-5.705966949E-1,-7.864531279E-1,9.786372185E0
6.967633399E1,-5.852632523E-1,-7.969268560E-1,9.798202515E0
6.972633399E1,-5.240205526E-1,-7.908121943E-1,9.789508820E0
6.977633399E1,-4.881532192E-1,-7.850763202E-1,9.789961815E0
6.982633399E1,-5.087411404E-1,-7.595772743E-1,9.791829109E0
6.987633399E1,-5.679249763E-1,-7.623682022E-1,9.791137695E0
6.992633399E1,-5.903683901E-1,-8.191232681E-1,9.785470963E0
6.997633399E1,-5.603685975E-1,-8.286637068E-1,9.786201477E0
7.002633399E1,-5.038498640E-1,-7.691794038E-1,9.794471741E0
7.007633399E1,-4.897166789E-1,-7.186311483E-1,9.782094955E0
7.012633399E1,-5.112688541E-1,-7.475439310E-1,9.807723999E0
7.017633399E1,-5.615963936E-1,-7.643566132E-1,9.774557114E0
7.022633399E1,-5.586100221E-1,-8.088213205E-1,9.804241180E0
7.027633399E1,-5.566823483E-1,-7.921488285E-1,9.745082855E0
7.032633399E1,-4.952673316E-1,-7.550423145E-1,9.809930801E0
7.037633399E1,-5.154630542E-1,-7.690120339E-1,9.759001732E0
7.042633399E1,-5.574685931E-1,-7.905107737E-1,9.809379578E0
7.047633399E1,-5.330117941E-1,-7.952836156E-1,9.772651672E0
7.052633399E1,-4.879450202E-1,-7.788232565E-1,9.798738480E0
7.057633399E1,-4.972698987E-1,-7.476695776E-1,9.785413742E0
7.062633399E1,-5.291867256E-1,-7.505555153E-1,9.786707878E0
7.067633399E1,-5.400408506E-1,-8.053336143E-1,9.801721573E0
7.072633399E1,-5.269273520E-1,-8.112767935E-1,9.751321793E0
7.077633399E1,-5.603913069E-1,-7.674118280E-1,9.792211533E0
7.082633399E1,-5.502765179E-1,-7.512854338E-1,9.795408249E0
7.087633399E1,-4.988198280E-1,-7.653804421E-1,9.794330597E0
7.092633399E1,-4.682909250E-1,-8.029994965E-1,9.786616325E0
7.097633399E1,-5.116630793E-1,-8.088684082E-1,9.797382355E0
7.102633399E1,-5.594097376E-1,-7.816637754E-1,9.772394180E0
7.107633399E1,-5.082769990E-1,-7.821061611E-1,9.828120232E0
7.112633399E1,-4.625490308E-1,-7.566231489E-1,9.750177383E0
7.117633399E1,-4.622988701E-1,-7.981642485E-1,9.818810463E0
7.122633399E1,-5.891019106E-1,-7.880289555E-1,9.761690140E0
7.127633399E1,-5.875015259E-1,-7.790766954E-1,9.803908348E0
7.132633399E1,-4.937467575E-1,-7.908180952E-1,9.791962624E0
7.137633399E1,-4.727082253E-1,-7.837055922E-1,9.803528786E0
7.142633399E1,-4.883127213E-1,-7.983044982E-1,9.774410248E0
7.147633399E1,-5.320535302E-1,-7.833541632E-1,9.764976501E0
7.152633399E1,-5.049001575E-1,-7.715658545E-1,9.875050545E0
7.157633399E1,-5.276628137E-1,-8.044978976E-1,9.782453537E0
7.162633399E1,-5.717213750E-1,-8.165704012E-1,9.777752876E0
7.167633399E1,-4.732437134E-1,-7.821458578E-1,9.776252747E0
7.172633399E1,-4.368577003E-1,-7.163317204E-1,9.796104431E0
7.177633399E1,-5.736886859E-1,-7.137569189E-1,9.793573380E0
7.182633399E1,-5.897539258E-1,-7.802001238E-1,9.784427643E0
7.187633399E1,-5.331877470E-1,-8.472346067E-1,9.779512405E0
7.192633399E1,-4.775106907E-1,-8.270317316E-1,9.792724609E0
7.197633399E1,-4.875230789E-1,-7.497508526E-1,9.789699554E0
7.202633399E1,-5.290588140E-1,-7.315552235E-1,9.816934586E0
7.207633399E1,-5.584390163E-1,-7.657324672E-1,9.789250374E0
7.212633399E1,-5.345441103E-1,-7.763285637E-1,9.798256874E0
7.217633399E1,-5.058705807E-1,-8.176606894E-1,9.790002823E0
7.222633399E1,-5.095092654E-1,-7.963893414E-1,9.770023346E0
7.227633399E1,-5.360731483E-1,-7.687805891E-1,9.804882050E0
7.232633399E1,-5.387989283E-1,-7.611891031E-1,9.760982513E0
7.237633399E1,-5.134787560E-1,-7.953450084E-1,9.784132957E0
7.242633399E1,-5.122097135E-1,-7.908888459E-1,9.794030190E0
7.247633399E1,-5.301097631E-1,-7.677889466E-1,9.793526649E0
7.252633399E1,-5.472892523E-1,-7.823510766E-1,9.793305397E0
7.257633399E1,-5.295867324E-1,-7.638559937E-1,9.749763489E0
7.262633399E1,-5.208525062E-1,-8.328529596E-1,9.733123779E0
7.267633399E1,-4.534918070E-1,-7.808836699E-1,9.828310013E0
7.272633399E1,-5.519128442E-1,-7.604914904E-1,9.723335266E0
7.277633399E1,-5.370995998E-1,-8.120756149E-1,9.773694992E0
7.282633399E1,-5.333416462E-1,-7.941204309E-1,9.811941147E0
7.287633399E1,-5.171052217E-1,-7.599451542E-1,9.786800385E0
7.292633399E1,-5.168063641E-1,-7.494231462E-1,9.783004761E0
7.297633399E1,-5.088737011E-1,-7.811930180E-1,9.782222748E0
7.302633399E1,-5.047103763E-1,-7.980595231E-1,9.792287827E0
7.307633399E1,-5.343107581E-1,-7.984037399E-1,9.797380447E0
7.312633399E1,-5.127986073E-1,-7.577514648E-1,9.789188385E0
7.317633399E1,-4.966735840E-1,-7.907950878E-1,9.810180664E0
7.322633399E1,-5.042145252E-1,-7.973541021E-1,9.770236969E0
7.327633399E1,-5.216488838E-1,-7.634663582E-1,9.792981148E0
7.332633399E1,-5.474952459E-1,-7.563240528E-1,9.793052673E0
7.337633399E1,-5.142182112E-1,-7.827953100E-1,9.793590546E0
7.342633399E1,-4.695627093E-1,-8.057552576E-1,9.789879799E0
7.347633399E1,-5.046898127E-1,-7.879523039E-1,9.737321854E0
7.352633399E1,-5.346664190E-1,-7.721971273E-1,9.787298203E0
7.357633399E1,-5.397985578E-1,-7.974575162E-1,9.732830048E0
7.362633399E1,-5.059590936E-1,-7.858170867E-1,9.800390244E0
7.367633399E1,-4.849863648E-1,-7.786664963E-1,9.793528557E0
7.372633399E1,-5.225843191E-1,-7.801699638E-1,9.803731918E0
7.377633399E1,-5.420365334E-1,-7.994428873E-1,9.785617828E0
7.382633399E1,-5.141048431E-1,-7.882065773E-1,9.795843124E0
7.387633399E1,-4.921826720E-1,-7.734686136E-1,9.799419403E0
7.392633399E1,-4.829807878E-1,-7.763270140E-1,9.794785500E0
7.397633399E1,-4.871010184E-1,-7.832205296E-1,9.790536880E0
7.402633399E1,-5.254538655E-1,-7.995820045E-1,9.787250519E0
7.407633399E1,-5.354556441E-1,-7.915996313E-1,9.800899506E0
7.412633399E1,-4.983027577E-1,-7.719493508E-1,9.782793045E0
7.417633399E1,-4.885802269E-1,-7.613985538E-1,9.792621613E0
7.422633399E1,-5.294613838E-1,-7.742275000E-1,9.793809891E0
7.427633399E1,-5.252666473E-1,-7.836402655E-1,9.791938782E0
7.432633399E1,-4.785736501E-1,-7.980974913E-1,9.797989845E0
7.437633399E1,-5.090640187E-1,-7.731319070E-1,9.787028313E0
7.442633399E1,-4.831066132E-1,-7.955157757E-1,9.790983200E0
7.447633399E1,-5.111635923E-1,-7.984342575E-1,9.800804138E0
7.452633399E1,-5.434983969E-1,-7.529760599E-1,9.785041809E0
7.457633399E1,-5.259617567E-1,-7.822855115E-1,9.788005829E0
7.462633399E1,-5.481938124E-1,-7.940629721E-1,9.776590347E0
7.467633399E1,-4.957919717E-1,-7.854604125E-1,9.801451683E0
7.472633399E1,-4.878529310E-1,-7.802354097E-1,9.785503387E0
7.477633399E1,-4.936153293E-1,-7.977943420E-1,9.806534767E0
7.482633399E1,-5.390157104E-1,-8.139791489E-1,9.612058640E0
7.487633399E1,-5.392850637E-1,-7.792877555E-1,9.769600868E0
7.492633399E1,-5.142626762E-1,-7.557672858E-1,9.795402527E0
7.497633399E1,-5.155000687E-1,-7.400803566E-1,9.800197601E0
7.502633399E1,-5.108526349E-1,-7.594283819E-1,9.786547661E0
7.507633399E1,-5.209088326E-1,-8.191708326E-1,9.781820297E0
7.512633399E1,-5.627356768E-1,-8.412532806E-1,9.781900406E0
7.517633399E1,-5.563450456E-1,-7.638988495E-1,9.796287537E0
7.522633399E1,-4.835931063E-1,-7.487497926E-1,9.793846130E0
7.527633399E1,-4.672246575E-1,-7.798956037E-1,9.778979301E0
7.532633399E1,-4.974342585E-1,-8.003787994E-1,9.792792320E0
7.537633399E1,-5.526038408E-1,-7.939591408E-1,9.783941269E0
7.542633399E1,-5.749897957E-1,-8.101547956E-1,9.792226791E0
7.547633399E1,-5.206153393E-1,-7.622776031E-1,9.787729263E0
7.552633399E1,-4.890098274E-1,-7.480067015E-1,9.806754112E0
7.557633399E1,-5.077537298E-1,-7.474625707E-1,9.796241760E0
7.562633399E1,-5.533551574E-1,-8.137804270E-1,9.759347916E0
7.567633399E1,-5.268107057E-1,-8.009933233E-1,9.817333221E0
7.572633399E1,-4.774628282E-1,-7.669056058E-1,9.778224945E0
7.577633399E1,-4.777409732E-1,-7.846697569E-1,9.794527054E0
7.582633399E1,-5.233471394E-1,-7.703995705E-1,9.771331787E0
7.587633399E1,-5.505897999E-1,-8.217239976E-1,9.826890945E0
7.592633399E1,-5.885865688E-1,-7.991883755E-1,9.741304398E0
7.597633399E1,-4.683249593E-1,-7.280142903E-1,9.787344933E0
7.602633399E1,-4.588813782E-1,-7.397357225E-1,9.790548325E0
7.607633399E1,-5.625363588E-1,-7.878056169E-1,9.804002762E0
7.612633399E1,-5.222022533E-1,-8.123295903E-1,9.801486015E0
7.617633399E1,-4.847888350E-1,-8.223078251E-1,9.786933899E0
7.622633399E1,-5.066748261E-1,-7.907426357E-1,9.775018692E0
7.627633399E1,-5.311805010E-1,-7.460429668E-1,9.805450439E0
7.632633399E1,-5.473925471E-1,-7.491618395E-1,9.771806717E0
7.637633399E1,-5.116782188E-1,-8.237307072E-1,9.785601616E0
7.642633399E1,-4.576109946E-1,-8.237556219E-1,9.808053970E0
7.647633399E1,-4.947793484E-1,-7.862882614E-1,9.771627426E0
7.652633399E1,-5.060704947E-1,-7.787907124E-1,9.797482491E0
7.657633399E1,-5.338854194E-1,-7.376563549E-1,9.818939209E0
7.662633399E1,-5.349689722E-1,-7.453879118E-1,9.779743195E0
7.667633399E1,-5.313580632E-1,-8.408209682E-1,9.789080620E0
7.672633399E1,-5.985202193E-1,-7.938318253E-1,9.785284996E0
7.677633399E1,-4.585047364E-1,-7.488433123E-1,9.809370041E0
7.682633399E1,-4.148198068E-1,-7.149857283E-1,9.788011551E0
7.687633399E1,-5.046290159E-1,-7.859531641E-1,9.802722931E0
7.692633399E1,-6.052834988E-1,-8.609561920E-1,9.767108917E0
7.697633399E1,-5.365614891E-1,-8.578453064E-1,9.807575226E0
7.702633399E1,-4.317651391E-1,-7.197187543E-1,9.782478333E0
7.707633399E1,-4.305990636E-1,-7.189952135E-1,9.812917709E0
7.712633399E1,-5.917692184E-1,-7.994733453E-1,9.767137527E0
7.717633399E1,-4.923960567E-1,-7.241080999E-1,9.818098068E0
7.722633399E1,-5.138217807E-1,-7.974011898E-1,9.766277313E0
7.727633399E1,-4.667973518E-1,-8.136830926E-1,9.825821877E0
7.732633399E1,-5.273595452E-1,-7.566610575E-1,9.762783051E0
7.737633399E1,-5.120492578E-1,-7.889744043E-1,9.795915604E0
7.742633399E1,-4.707420170E-1,-7.802945375E-1,9.798274994E0
7.747633399E1,-4.031750560E-1,-8.198709488E-1,1.016612053E1
7.752633399E1,-5.557032228E-1,-7.703616023E-1,9.747748375E0
7.757633399E1,-4.757202864E-1,-7.631684542E-1,9.736705780E0
7.762633399E1,-5.167286396E-1,-8.198633790E-1,9.803180695E0
7.767633399E1,-5.319471359E-1,-7.568300962E-1,9.777959824E0
7.772633399E1,-5.377655029E-1,-7.403868437E-1,9.799373627E0
7.777633399E1,-4.696173966E-1,-8.100935221E-1,9.794401169E0
7.782633399E1,-4.883213043E-1,-8.005509377E-1,9.773166656E0
7.787633399E1,-5.195707679E-1,-7.825484276E-1,9.826164246E0
7.792633399E1,-5.343722105E-1,-7.497811317E-1,9.750549316E0
7.797633399E1,-4.844846725E-1,-7.580167055E-1,9.843682289E0
7.802633399E1,-4.951844811E-1,-7.812373638E-1,9.785638809E0
7.807633399E1,-5.013692379E-1,-8.264149427E-1,9.791234970E0
7.812633399E1,-5.034487247E-1,-8.022376299E-1,9.811328888E0
7.817633399E1,-5.512084961E-1,-7.621657848E-1,9.722080231E0
7.822633399E1,-5.065532923E-1,-7.512156963E-1,9.828522682E0
7.827633399E1,-5.245798826E-1,-7.787102461E-1,9.807682037E0
7.832633399E1,-5.144220591E-1,-7.591078877E-1,9.765054703E0
7.837633399E1,-5.113660097E-1,-7.524636984E-1,9.821399689E0
7.842633399E1,-4.915952682E-1,-7.800803781E-1,9.779486656E0
7.847633399E1,-5.021495223E-1,-8.085672855E-1,9.841180801E0
7.852633399E1,-4.928190112E-1,-8.228930235E-1,9.749304771E0
7.857633399E1,-5.008639097E-1,-8.056354523E-1,9.816766739E0
7.862633399E1,-5.661708117E-1,-8.117464781E-1,9.788232803E0
7.867633399E1,-5.813534856E-1,-7.547355294E-1,9.769345284E0
7.872633399E1,-4.573987424E-1,-7.041659951E-1,9.826940536E0
7.877633399E1,-5.392162204E-1,-7.931736112E-1,9.766651154E0
7.882633399E1,-5.429766178E-1,-7.828941345E-1,9.773453712E0
7.887633399E1,-4.992082119E-1,-7.418029904E-1,9.825248718E0
7.892633399E1,-5.178975463E-1,-7.795713544E-1,9.785675049E0
7.897633399E1,-4.902370572E-1,-7.711707354E-1,9.795377731E0
7.902633399E1,-5.204288363E-1,-8.040995598E-1,9.775646210E0
7.907633399E1,-4.971378446E-1,-8.159310818E-1,9.780294418E0
7.912633399E1,-5.004304647E-1,-8.105797768E-1,9.810565948E0
7.917633399E1,-5.583552122E-1,-7.595327497E-1,9.756927490E0
7.922633399E1,-5.411166549E-1,-7.745042443E-1,9.803127289E0
7.927633399E1,-5.490972400E-1,-7.831866741E-1,9.755041122E0
7.932633399E1,-4.946354628E-1,-7.454262972E-1,9.810583115E0
7.937633399E1,-4.978804290E-1,-8.049595952E-1,9.749761581E0
7.942633399E1,-5.256080031E-1,-7.979304790E-1,9.829833984E0
7.947633399E1,-4.997348189E-1,-7.261815071E-1,9.754285812E0
7.952633399E1,-5.479968786E-1,-7.703630924E-1,9.761188507E0
7.957633399E1,-4.875484705E-1,-7.893854380E-1,9.824699402E0
7.962633399E1,-4.639859200E-1,-8.155404329E-1,9.783414841E0
7.967633399E1,-5.328861475E-1,-8.204985261E-1,9.806766510E0
7.972633399E1,-5.934658051E-1,-7.946548462E-1,9.763932228E0
7.977633399E1,-5.669768453E-1,-7.659451365E-1,9.799293518E0
7.982633399E1,-4.640027881E-1,-7.478511930E-1,9.839061737E0
7.987633399E1,-4.701998830E-1,-7.434267998E-1,9.777132988E0
7.992633399E1,-5.468741059E-1,-7.719191909E-1,9.798620224E0
7.997633399E1,-5.063825846E-1,-7.781288624E-1,9.766804695E0
8.002633399E1,-5.260555744E-1,-8.059700727E-1,9.774223328E0
8.007633399E1,-4.646124840E-1,-8.019783497E-1,9.817932129E0
8.012633399E1,-5.052346587E-1,-8.063634634E-1,9.755515099E0
8.017633399E1,-5.627581477E-1,-8.087376356E-1,9.791372299E0
8.022633399E1,-5.717424750E-1,-7.875554562E-1,9.779315948E0
8.027633399E1,-4.909663200E-1,-7.190989256E-1,9.813776016E0
8.032633399E1,-4.910875261E-1,-7.315069437E-1,9.800443649E0
8.037633399E1,-5.406279564E-1,-7.836347818E-1,9.783662796E0
8.042633399E1,-5.002304912E-1,-7.933930755E-1,9.806362152E0
8.047633399E1,-4.866755307E-1,-8.150398731E-1,9.793327332E0
8.052633399E1,-4.973346591E-1,-8.192986846E-1,9.778726578E0
8.057633399E1,-5.396859646E-1,-7.953192592E-1,9.808177948E0
8.062633399E1,-5.911942720E-1,-7.585162520E-1,9.762060165E0
8.067633399E1,-5.420699120E-1,-7.476867437E-1,9.792690277E0
8.072633399E1,-4.559043646E-1,-7.645852566E-1,9.772973061E0
8.077633399E1,-4.991644621E-1,-7.855648994E-1,9.791559219E0
8.082633399E1,-5.521965623E-1,-7.632997036E-1,9.782750130E0
8.087633399E1,-5.220307112E-1,-7.644648552E-1,9.796007156E0
8.092633399E1,-4.914719462E-1,-7.999991775E-1,9.763298035E0
8.097633399E1,-4.533949494E-1,-8.133795261E-1,9.815452576E0
8.102633399E1,-5.000594258E-1,-8.064153194E-1,9.806858063E0
8.107633399E1,-5.903925896E-1,-7.966780663E-1,9.765130997E0
8.112633399E1,-5.726905465E-1,-7.819978595E-1,9.802567482E0
8.117633399E1,-4.948650599E-1,-7.642927766E-1,9.807097435E0
8.122633399E1,-5.028909445E-1,-7.506255507E-1,9.766182899E0
8.127633399E1,-5.381400585E-1,-7.637917995E-1,9.789664268E0
8.132633399E1,-5.352067947E-1,-7.700092793E-1,9.815414429E0
8.137633399E1,-4.889297485E-1,-7.658403516E-1,9.781819344E0
8.142633399E1,-4.822708964E-1,-7.708844543E-1,9.786296844E0
8.147633399E1,-5.162761211E-1,-8.024256229E-1,9.775578499E0
8.152633399E1,-5.506190062E-1,-7.974777222E-1,9.792652130E0
8.157633399E1,-5.257647038E-1,-8.218767047E-1,9.787044525E0
8.162633399E1,-4.817839861E-1,-8.365861177E-1,9.817680359E0
8.167633399E1,-5.242822170E-1,-7.536072731E-1,9.792091370E0
8.172633399E1,-5.271919966E-1,-7.167006731E-1,9.789947510E0
8.177633399E1,-5.203895569E-1,-7.616230845E-1,9.783775330E0
8.182633399E1,-5.352627039E-1,-8.013318777E-1,9.784466743E0
8.187633399E1,-5.119966269E-1,-8.207052350E-1,9.803646088E0
8.192633399E1,-4.962961078E-1,-7.791635990E-1,9.791324615E0
8.197633399E1,-5.200917721E-1,-7.336997986E-1,9.804759979E0
8.202633399E1,-5.322120786E-1,-7.164002061E-1,9.793916702E0
8.207633399E1,-5.073624849E-1,-7.788425684E-1,9.808792114E0
8.212633399E1,-4.881266356E-1,-8.448874354E-1,9.787290573E0
8.217633399E1,-5.332726240E-1,-8.269113302E-1,9.763720512E0
8.222633399E1,-5.433431268E-1,-7.678232193E-1,9.781517029E0
8.227633399E1,-5.166618228E-1,-7.363750935E-1,9.817454338E0
8.232633399E1,-5.165766478E-1,-7.511519194E-1,9.771850586E0
8.237633399E1,-5.449661613E-1,-6.197980642E-1,9.806579590E0
8.242633399E1,-4.809310138E-1,-9.334795475E-1,9.797039032E0
8.247633399E1,-5.501316786E-1,-8.250476122E-1,9.781643867E0
8.252633399E1,-5.515964031E-1,-7.701081038E-1,9.780145645E0
8.257633399E1,-5.173377395E-1,-7.535368800E-1,9.782278061E0
8.262633399E1,-4.717150927E-1,-7.882493734E-1,9.783781052E0
8.267633399E1,-5.033393502E-1,-7.701702118E-1,9.818509102E0
8.272633399E1,-5.580815077E-1,-7.831852436E-1,9.787495613E0
8.277633399E1,-5.348125696E-1,-7.427557707E-1,9.772621155E0
8.282633399E1,-4.681723714E-1,-7.994704247E-1,9.795763016E0
8.287633399E1,-4.956104755E-1,-7.684165239E-1,9.784622192E0
8.292633399E1,-5.575672984E-1,-7.843542695E-1,9.794750214E0
8.297633399E1,-5.463445187E-1,-7.937897444E-1,9.798538208E0
8.302633399E1,-5.050042868E-1,-7.593775988E-1,9.777959824E0
8.307633399E1,-5.049144030E-1,-7.296054363E-1,9.807129860E0
8.312633399E1,-5.493820310E-1,-7.633247375E-1,9.774534225E0
8.317633399E1,-5.738415718E-1,-8.520820141E-1,9.786985397E0
8.322633399E1,-5.064181089E-1,-8.292853236E-1,9.819128036E0
8.327633399E1,-4.409550130E-1,-8.005785942E-1,9.827274323E0
8.332633399E1,-4.621311426E-1,-8.231927752E-1,9.711509705E0
8.337633399E1,-5.297464728E-1,-7.162276506E-1,9.792333603E0
8.342633399E1,-5.752276182E-1,-7.018821836E-1,9.794582367E0
8.347633399E1,-5.475610495E-1,-7.548986077E-1,9.806322098E0
8.352633399E1,-5.066017509E-1,-8.060730696E-1,9.797170639E0
8.357633399E1,-4.838517308E-1,-8.367817402E-1,9.786466599E0
8.362633399E1,-5.127506256E-1,-7.961882353E-1,9.759941101E0
8.367633399E1,-5.568741560E-1,-7.870317698E-1,9.807550430E0
8.372633399E1,-5.141550303E-1,-7.654591799E-1,9.815841675E0
8.377633399E1,-4.898458719E-1,-7.754118443E-1,9.767833710E0
8.382633399E1,-5.318672657E-1,-7.638202310E-1,9.763999939E0
8.387633399E1,-5.420238376E-1,-7.602690458E-1,9.834199905E0
8.392633399E1,-5.411260128E-1,-8.098546267E-1,9.761509895E0
8.397633399E1,-5.052596331E-1,-7.899842262E-1,9.792364120E0
8.402633399E1,-4.937023520E-1,-7.782902718E-1,9.807227135E0
8.407633399E1,-5.212573409E-1,-7.757265568E-1,9.781935692E0
8.412633399E1,-5.315742493E-1,-7.684373856E-1,9.785491943E0
8.417633399E1,-4.805443287E-1,-7.691709399E-1,9.891572952E0
8.422633399E1,-5.338786840E-1,-7.535482645E-1,9.776382446E0
8.427633399E1,-4.891221523E-1,-8.044053316E-1,9.788564682E0
8.432633399E1,-5.180615783E-1,-8.046280146E-1,9.799081802E0
8.437633399E1,-5.000866055E-1,-7.679432631E-1,9.841997147E0
8.442633399E1,-5.067619085E-1,-7.531299591E-1,9.656894684E0
8.447633399E1,-4.873038828E-1,-7.938346863E-1,9.824499130E0
8.452633399E1,-5.624427795E-1,-7.870212197E-1,9.795346260E0
8.457633399E1,-5.783023238E-1,-7.787622809E-1,9.787456512E0
8.462633399E1,-5.198755860E-1,-7.754349709E-1,9.792005539E0
8.467633399E1,-4.877795577E-1,-7.654460073E-1,9.794847488E0
8.472633399E1,-5.055447221E-1,-7.668105364E-1,9.793320656E0
8.477633399E1,-5.495364666E-1,-7.782179117E-1,9.794500351E0
8.482633399E1,-5.616707802E-1,-7.828521729E-1,9.789766312E0
8.487633399E1,-5.216199160E-1,-7.733493447E-1,9.785327911E0
8.492633399E1,-4.989344478E-1,-7.590492964E-1,9.795654297E0
8.497633399E1,-5.287856460E-1,-7.540125251E-1,9.788196564E0
8.502633399E1,-5.352854729E-1,-7.818040252E-1,9.784143448E0
8.507633399E1,-5.379595757E-1,-7.990468144E-1,9.792869568E0
8.512633399E1,-5.275076032E-1,-8.217246532E-1,9.781566620E0
8.517633399E1,-5.411288738E-1,-7.980902791E-1,9.790308952E0
8.522633399E1,-5.099048615E-1,-7.401486635E-1,9.789175034E0
8.527633399E1,-5.119684935E-1,-7.207993865E-1,9.790843964E0
8.532633399E1,-5.456899405E-1,-7.699473500E-1,9.789636612E0
8.537633399E1,-5.490559340E-1,-8.175468445E-1,9.785343170E0
8.542633399E1,-5.169522762E-1,-8.152540922E-1,9.787986755E0
8.547633399E1,-5.276712775E-1,-7.461055517E-1,9.809906006E0
8.552633399E1,-5.110839605E-1,-7.498083711E-1,9.794176102E0
8.557633399E1,-5.228757262E-1,-7.819068432E-1,9.808082581E0
8.562633399E1,-5.390446782E-1,-7.931668758E-1,9.776771545E0
8.567633399E1,-5.458663106E-1,-7.929592133E-1,9.795090675E0
8.572633399E1,-5.230190754E-1,-7.752054930E-1,9.765697479E0
8.577633399E1,-5.024173856E-1,-7.617025375E-1,9.801099777E0
8.582633399E1,-5.036634803E-1,-7.742980719E-1,9.798326492E0
8.587633399E1,-5.469512343E-1,-7.754567862E-1,9.784772873E0
8.592633399E1,-5.444885492E-1,-7.895755172E-1,9.791474342E0
8.597633399E1,-5.357598066E-1,-7.779533267E-1,9.783884048E0
8.602633399E1,-5.161947608E-1,-7.747105956E-1,9.797840118E0
8.607633399E1,-5.193128586E-1,-7.709271312E-1,9.775135040E0
8.612633399E1,-5.434703827E-1,-7.765228152E-1,9.809480667E0
8.617633399E1,-5.089842081E-1,-7.498019934E-1,9.798188210E0
8.622633399E1,-5.305721760E-1,-7.448475361E-1,9.770624161E0
8.627633399E1,-5.690975189E-1,-7.807635069E-1,9.785231590E0
8.632633399E1,-4.921004176E-1,-8.270980120E-1,9.827747345E0
8.637633399E1,-5.188260078E-1,-7.974674702E-1,9.771701813E0
8.642633399E1,-5.405731201E-1,-7.308710814E-1,9.798958778E0
8.647633399E1,-5.272887945E-1,-7.652727365E-1,9.779092789E0
8.652633399E1,-5.352844000E-1,-8.026549816E-1,9.808405876E0
8.657633399E1,-5.260725617E-1,-8.051704168E-1,9.799324989E0
8.662633399E1,-5.466244221E-1,-7.760258913E-1,9.777805328E0
8.667633399E1,-5.279454589E-1,-7.484182715E-1,9.798879623E0
8.672633399E1,-5.280329585E-1,-7.547897100E-1,9.775825500E0
8.677633399E1,-5.289588571E-1,-7.734557986E-1,9.794889450E0
8.682633399E1,-5.422340631E-1,-7.895860672E-1,9.775105476E0
8.687633399E1,-5.415642262E-1,-8.253654242E-1,9.799853325E0
8.692633399E1,-5.571971536E-1,-7.537288070E-1,9.792556763E0
8.697633399E1,-5.532034636E-1,-6.727911234E-1,9.802932739E0
8.702633399E1,-4.693151116E-1,-2.343430221E-1,9.827834129E0
8.707633399E1,-6.403181553E-1,-1.213361263E0,9.751816750E0
8.712633399E1,-5.313191414E-1,-8.929079771E-1,9.820614815E0
8.717633399E1,-5.836254358E-1,-1.092118979E0,9.648624420E0
8.722633399E1,-4.976295531E-1,-9.053641558E-1,9.873356819E0
8.727633399E1,-5.024553537E-1,-7.254560590E-1,9.794513702E0
8.732633399E1,-5.048289895E-1,-7.468260527E-1,9.747138977E0
8.737633399E1,-5.792827606E-1,-6.879126430E-1,9.779251099E0
8.742633399E1,-5.911283493E-1,-6.968928576E-1,9.795921326E0
8.747633399E1,-5.119390488E-1,-7.700229287E-1,9.788824081E0
8.752633399E1,-5.312341452E-1,-7.705110312E-1,9.796157837E0
8.757633399E1,-5.535829067E-1,-7.396992445E-1,9.789668083E0
8.762633399E1,-5.522350073E-1,-7.438536286E-1,9.793016434E0
8.767633399E1,-5.365005732E-1,-7.731754780E-1,9.797933578E0
8.772633399E1,-5.487503409E-1,-7.805473208E-1,9.793941498E0
8.777633399E1,-5.413094163E-1,-7.646442056E-1,9.795368195E0
8.782633399E1,-5.436525345E-1,-7.396557331E-1,9.796745300E0
8.787633399E1,-5.552673936E-1,-7.349064350E-1,9.795896530E0
8.792633399E1,-5.440973043E-1,-7.611788511E-1,9.788804054E0
8.797633399E1,-5.378141403E-1,-7.867572308E-1,9.792246819E0
8.802633399E1,-5.465347767E-1,-7.745567560E-1,9.800039291E0
8.807633399E1,-5.443649292E-1,-7.486782074E-1,9.788047791E0
8.812633399E1,-5.458998680E-1,-7.355239987E-1,9.787559509E0
8.817633399E1,-5.555152893E-1,-7.422173023E-1,9.765325546E0
8.822633399E1,-5.370229483E-1,-7.696956992E-1,9.852146149E0
8.827633399E1,-5.919165611E-1,-6.631633043E-1,9.807964325E0
8.832633399E1,-5.609736443E-1,-7.888897657E-1,9.735670090E0
8.837633399E1,-5.323773623E-1,-7.287721038E-1,9.779592514E0
8.842633399E1,-5.403891802E-1,-8.146456480E-1,9.756572723E0
8.847633399E1,-6.142001152E-1,-6.497296095E-1,9.804887772E0
8.852633399E1,-6.119878292E-1,-7.056626081E-1,9.829335213E0
8.857633399E1,-5.973302126E-1,-6.739867926E-1,9.876346588E0
8.862633399E1,-5.230634212E-1,-7.688138485E-1,9.723153114E0
8.867633399E1,-5.547225475E-1,-7.805209160E-1,9.637752533E0
8.872633399E1,-6.165208220E-1,-6.352099180E-1,1.002660179E1
8.877633399E1,-6.831495762E-1,-6.679067016E-1,9.597246170E0
8.882633399E1,-5.935106874E-1,-6.331257820E-1,9.837873459E0
8.887633399E1,-5.307211280E-1,-8.070044518E-1,9.748794556E0
8.892633399E1,-4.997466207E-1,-7.479798794E-1,9.797027588E0
8.897633399E1,-6.234129071E-1,-7.185229063E-1,9.802173615E0
8.902633399E1,-6.629879475E-1,-6.902128458E-1,9.776439667E0
8.907633399E1,-6.331463456E-1,-5.328897238E-1,9.955245972E0
8.912633399E1,-6.314160228E-1,-5.644162893E-1,9.929939270E0
8.917633399E1,-8.740229607E-1,-2.737965584E-1,1.002361012E1
8.922633399E1,-8.062601089E-1,-4.153786004E-1,9.623420715E0
8.927633399E1,-6.033622622E-1,-1.230002642E0,9.563533783E0
8.932633399E1,-8.579415083E-1,-4.653481841E-1,9.806642532E0
8.937633399E1,-8.279231787E-1,-4.870398641E-1,9.713984489E0
8.942633399E1,-7.989946604E-1,-5.428653955E-1,9.561943054E0
8.947633399E1,-8.441060781E-1,-2.503120601E-1,9.988206863E0
8.952633399E1,-8.539476991E-1,-4.250220954E-1,9.787314415E0
8.957633399E1,-8.153481483E-1,-5.115443468E-1,9.859450340E0
8.962633399E1,-7.876902819E-1,-5.188400745E-1,9.749250412E0
8.967633399E1,-7.172952890E-1,-1.359003484E-1,9.588449478E0
8.972633399E1,-6.377329826E-1,-4.824695587E-1,9.795118332E0
8.977633399E1,-8.011982441E-1,-2.871003151E-1,9.998520851E0
8.982633399E1,-8.167713881E-1,-6.326459646E-1,9.605524063E0
8.987633399E1,-8.073476553E-1,-5.541956425E-1,9.886495590E0
8.992633399E1,-7.388561368E-1,-5.353696942E-1,9.703697205E0
8.997633399E1,-9.835158587E-1,-2.608500123E-1,9.755819321E0
9.002633399E1,-9.223834276E-1,-3.996878862E-1,9.783277512E0
9.007633399E1,-8.507900238E-1,-5.006743670E-1,9.729456902E0
9.012633399E1,-6.044593453E-1,-5.389875174E-1,9.901073456E0
9.017633399E1,-8.764090538E-1,-3.124220967E-1,9.764392853E0
9.022633399E1,-8.852891326E-1,-3.835369945E-1,9.776383400E0
9.027633399E1,-8.569613695E-1,-4.606220126E-1,9.788707733E0
9.032633399E1,-8.228425980E-1,-5.089628696E-1,9.783733368E0
9.037633399E1,-7.971043587E-1,-4.955210984E-1,9.791364670E0
9.042633399E1,-8.096534610E-1,-4.437215924E-1,9.790731430E0
9.047633399E1,-8.346188664E-1,-4.074393511E-1,9.784873962E0
9.052633399E1,-8.374983072E-1,-4.435312450E-1,9.782583237E0
9.057633399E1,-8.266549706E-1,-4.986070395E-1,9.792823792E0
9.062633399E1,-8.211845160E-1,-4.857341945E-1,9.787534714E0
9.067633399E1,-8.288617134E-1,-4.542489052E-1,9.791979790E0
9.072633399E1,-8.290566206E-1,-4.168840051E-1,9.786678314E0
9.077633399E1,-8.086706400E-1,-4.505400360E-1,9.789826393E0
9.082633399E1,-8.147425056E-1,-4.769532084E-1,9.808616638E0
9.087633399E1,-8.390990496E-1,-4.805632234E-1,9.780639648E0
9.092633399E1,-8.405233622E-1,-4.671095014E-1,9.784927368E0
9.097633399E1,-8.159997463E-1,-4.531448185E-1,9.791501045E0
9.102633399E1,-8.107372522E-1,-4.405433834E-1,9.766553879E0
9.107633399E1,-8.293698430E-1,-4.411531985E-1,9.767971992E0
9.112633399E1,-8.272329569E-1,-4.775237143E-1,9.828645706E0
9.117633399E1,-8.103808165E-1,-4.872384071E-1,9.782325745E0
9.122633399E1,-8.159665465E-1,-4.700359702E-1,9.786874771E0
9.127633399E1,-8.210837245E-1,-4.653601050E-1,9.774938583E0
9.132633399E1,-8.273300529E-1,-4.523562193E-1,9.815132141E0
9.137633399E1,-8.324583769E-1,-4.597857594E-1,9.744533539E0
9.142633399E1,-8.149464130E-1,-4.759042859E-1,9.793113708E0
9.147633399E1,-8.236840367E-1,-4.455169737E-1,9.721584320E0
9.152633399E1,-8.145858049E-1,-4.872957766E-1,9.898016930E0
9.157633399E1,-8.304966688E-1,-4.463922381E-1,9.738108635E0
9.162633399E1,-7.742959857E-1,-4.670181870E-1,9.850963593E0
9.167633399E1,-7.924268246E-1,-4.821682572E-1,9.808917999E0
9.172633399E1,-8.320956230E-1,-5.155664682E-1,9.784472466E0
9.177633399E1,-8.306040764E-1,-4.973016977E-1,9.774275780E0
9.182633399E1,-8.155261874E-1,-4.230074286E-1,9.806249619E0
9.187633399E1,-7.736338377E-1,-5.475294590E-1,9.791648865E0
9.192633399E1,-7.368155718E-1,-4.346062243E-1,9.781951904E0
9.197633399E1,-8.175147772E-1,-5.765923858E-1,9.683986664E0
9.202633399E1,-8.483625650E-1,-4.542931318E-1,9.835824966E0
9.207633399E1,-7.495595217E-1,-5.147950649E-1,9.833469391E0
9.212633399E1,-7.213515043E-1,-5.010057092E-1,9.718091011E0
9.217633399E1,-7.707306147E-1,-4.943929613E-1,9.862142563E0
9.222633399E1,-7.780674696E-1,-5.403279066E-1,9.764604568E0
9.227633399E1,-7.445821762E-1,-5.869777203E-1,9.864404678E0
9.232633399E1,-7.163630724E-1,-6.028286219E-1,9.784755707E0
9.237633399E1,-7.391195297E-1,-5.442514420E-1,9.835079193E0
9.242633399E1,-6.809781790E-1,-6.326154470E-1,9.710776329E0
9.247633399E1,-8.248409033E-1,-3.477542102E-1,9.960380554E0
9.252633399E1,-7.589090466E-1,-5.763875842E-1,9.772718430E0
9.257633399E1,-8.549904823E-1,-4.530357122E-1,9.963620186E0
9.262633399E1,-6.505956650E-1,-9.127733111E-1,9.622371674E0
9.267633399E1,-7.537616491E-1,-3.381832540E-1,9.887669563E0
9.272633399E1,-7.286200523E-1,-5.610979795E-1,9.798454285E0
9.277633399E1,-7.671669126E-1,-5.463174582E-1,9.771680832E0
9.282633399E1,-7.613368034E-1,-5.784130096E-1,9.779289246E0
9.287633399E1,-7.106896639E-1,-5.628765225E-1,9.797736168E0
9.292633399E1,-6.987085342E-1,-5.213531256E-1,9.804250717E0
9.297633399E1,-7.159448266E-1,-5.474878550E-1,9.806893349E0
9.302633399E1,-7.626397014E-1,-5.594156981E-1,9.813230515E0
9.307633399E1,-7.533863783E-1,-5.439158082E-1,9.819826126E0
9.312633399E1,-6.989911199E-1,-5.183242559E-1,9.867408752E0
9.317633399E1,-7.200056314E-1,-5.942968130E-1,9.747056961E0
9.322633399E1,-7.642095089E-1,-5.701215267E-1,9.799804688E0
9.327633399E1,-7.520503998E-1,-5.519037247E-1,9.765150070E0
9.332633399E1,-7.154592276E-1,-5.576856136E-1,9.848011017E0
9.337633399E1,-7.142299414E-1,-5.376769900E-1,9.763401031E0
9.342633399E1,-7.265882492E-1,-5.377871394E-1,9.763438225E0
9.347633399E1,-7.666050792E-1,-5.191636086E-1,9.850165367E0
9.352633399E1,-7.270529270E-1,-5.361146927E-1,9.739704132E0
9.357633399E1,-6.974262595E-1,-5.690020323E-1,9.867081642E0
9.362633399E1,-7.379320860E-1,-4.504597187E-1,9.852341652E0
9.367633399E1,-7.926843166E-1,-6.100728512E-1,9.746626854E0
9.372633399E1,-7.425905466E-1,-5.998634696E-1,9.820478439E0
9.377633399E1,-6.985775232E-1,-4.720309377E-1,9.673236847E0
9.382633399E1,-7.751190662E-1,-6.399528384E-1,9.937426567E0
9.387633399E1,-7.066835165E-1,-5.719730258E-1,9.708629608E0
9.392633399E1,-6.784305573E-1,-5.181275606E-1,9.810090065E0
9.397633399E1,-7.606724501E-1,-5.251735449E-1,9.845923424E0
9.402633399E1,-7.520319223E-1,-5.309592485E-1,9.763870239E0
9.407633399E1,-6.954388618E-1,-5.919702053E-1,9.808322906E0
9.412633399E1,-7.238010764E-1,-5.722866058E-1,9.800363541E0
9.417633399E1,-7.469187379E-1,-5.438796878E-1,9.788016319E0
9.422633399E1,-7.497593164E-1,-5.425036550E-1,9.782227516E0
9.427633399E1,-7.281609774E-1,-5.720140338E-1,9.786348343E0
9.432633399E1,-7.205848694E-1,-5.792384148E-1,9.792327881E0
9.437633399E1,-7.314215302E-1,-5.564033389E-1,9.791685104E0
9.442633399E1,-7.421219349E-1,-5.390847921E-1,9.789949417E0
9.447633399E1,-7.445130348E-1,-5.557395220E-1,9.792100906E0
9.452633399E1,-7.308964133E-1,-5.669943094E-1,9.786188126E0
9.457633399E1,-7.229303122E-1,-5.649522543E-1,9.795534134E0
9.462633399E1,-7.374889255E-1,-5.616401434E-1,9.794559479E0
9.467633399E1,-7.366619110E-1,-5.579534769E-1,9.788140297E0
9.472633399E1,-7.333492041E-1,-5.530174971E-1,9.800968170E0
9.477633399E1,-7.344113588E-1,-5.590596795E-1,9.789540291E0
9.482633399E1,-7.465581298E-1,-5.645350218E-1,9.781167984E0
9.487633399E1,-7.384976149E-1,-5.604081154E-1,9.793787003E0
9.492633399E1,-7.221288681E-1,-5.540019274E-1,9.790954590E0
9.497633399E1,-7.342069745E-1,-5.646635890E-1,9.798260689E0
9.502633399E1,-7.530075908E-1,-5.602974892E-1,9.769403458E0
9.507633399E1,-7.369463444E-1,-5.544437170E-1,9.792102814E0
9.512633399E1,-7.228297591E-1,-5.503476858E-1,9.776714325E0
9.517633399E1,-7.201253176E-1,-5.663697124E-1,9.773374557E0
9.522633399E1,-7.221527100E-1,-5.815522671E-1,9.756731033E0
9.527633399E1,-7.137579918E-1,-6.067068577E-1,9.750035286E0
9.532633399E1,-6.885353923E-1,-6.176012754E-1,9.749211311E0
9.537633399E1,-6.417303085E-1,-6.541898251E-1,9.948529243E0
9.542633399E1,-6.458238363E-1,-6.377915144E-1,9.787405014E0
9.547633399E1,-6.458092332E-1,-6.651328802E-1,9.785978317E0
9.552633399E1,-6.345095038E-1,-6.642784476E-1,9.793575287E0
9.557633399E1,-6.227707267E-1,-6.356829405E-1,9.795175552E0
9.562633399E1,-6.316246986E-1,-6.328842044E-1,9.799404144E0
9.567633399E1,-6.700681448E-1,-6.517580748E-1,9.798910141E0
9.572633399E1,-6.681209803E-1,-6.837379932E-1,9.791057587E0
9.577633399E1,-6.325867176E-1,-6.680771112E-1,9.798812866E0
9.582633399E1,-6.098957658E-1,-6.375861764E-1,9.791360855E0
9.587633399E1,-6.234236956E-1,-6.338617802E-1,9.792982101E0
9.592633399E1,-6.546373367E-1,-6.600252390E-1,9.794481277E0
9.597633399E1,-6.582167149E-1,-6.832929850E-1,9.799221992E0
9.602633399E1,-6.349739432E-1,-6.723529696E-1,9.792093277E0
9.607633399E1,-6.241958141E-1,-6.425318718E-1,9.794836044E0
9.612633399E1,-6.342308521E-1,-6.346616745E-1,9.796778679E0
9.617633399E1,-6.481403112E-1,-6.516966224E-1,9.800224304E0
9.622633399E1,-6.445841789E-1,-6.806660891E-1,9.798742294E0
9.627633399E1,-6.532927155E-1,-6.728149652E-1,9.697888374E0
9.632633399E1,-5.960471630E-1,-6.679922938E-1,9.924899101E0
9.637633399E1,-5.526145101E-1,-5.400043726E-1,1.042669487E1
9.642633399E1,-8.399911225E-2,-8.592355251E-1,6.894759178E0
9.647633399E1,-1.939343810E0,-8.901733756E-1,6.169587612E0
9.652633399E1,-1.796253562E0,-9.812430739E-1,9.714170456E0
9.657633399E1,-2.106073380E0,-9.719249606E-1,9.688204765E0
9.662633399E1,-1.982671976E0,-1.309971571E0,9.757461548E0
9.667633399E1,-2.081631899E0,-1.489887714E0,9.003821373E0
9.672633399E1,-2.089422226E0,-2.191578865E0,9.898938179E0
9.677633399E1,-2.030451536E0,-2.844699621E0,9.566179276E0
9.682633399E1,-2.040163517E0,-3.687557220E0,9.199363708E0
9.687633399E1,-2.486374617E0,-5.161381721E0,1.037705040E1
9.692633399E1,-1.617861152E0,-4.556719780E0,5.509618759E0
9.697633399E1,-4.278265953E0,-4.762657166E0,1.023441505E1
9.702633399E1,-2.895028591E0,-4.132133484E0,1.344370842E0
9.707633399E1,-4.457567215E0,-3.456511021E0,1.462787628E1
9.712633399E1,-3.893591166E0,-4.504358292E0,1.104284954E1
9.717633399E1,-4.499814034E0,-2.394632339E0,1.020903468E0
9.722633399E1,-1.021554375E1,-5.509148836E-1,-7.624593735E0
9.727633399E1,-1.130366325E1,-4.949164391E-2,-5.267140388E0
9.732633399E1,-1.224567795E1,-4.216852188E0,1.253549457E-1
9.737633399E1,-1.218105030E1,-1.887218237E0,2.532114983E0
9.742633399E1,-1.249375725E1,-1.427812576E0,3.265932560E0
9.747633399E1,-1.148605156E1,-5.811643004E-1,3.152739525E0
9.752633399E1,-1.110506153E1,-9.621567726E-1,1.026906729E0
9.757633399E1,-1.052365875E1,-2.082057595E-1,-1.192323327E0
9.762633399E1,-1.018200684E1,3.235941529E-1,5.705174804E-2
9.767633399E1,-9.492877007E0,5.342161655E-2,1.329933882E0
9.772633399E1,-9.402112961E0,-4.318211228E-3,-1.517417580E-1
9.777633399E1,-9.288031578E0,-6.247355938E-1,1.228941441E0
9.782633399E1,-9.299183846E0,-1.452547461E-1,4.150992632E-2
9.787633399E1,-9.762569427E0,-4.558399916E-1,7.040904164E-1
9.792633399E1,-1.070854378E1,-1.259543657E0,-5.236576200E-1
9.797633399E1,-1.041836357E1,-3.767947853E-1,-6.943318993E-2
9.802633399E1,-9.531155586E0,3.988113105E-1,-5.560125709E-1
9.807633399E1,-8.592731476E0,6.399896145E-1,2.443702519E-1
9.812633399E1,-7.602200985E0,1.270388842E0,2.816306353E-1
9.817633399E1,-7.530179024E0,6.093412638E-1,4.395579696E-1
9.822633399E1,-9.942197800E0,-2.373524666E0,2.848686576E-1
9.827633399E1,-1.028687191E1,-1.504964113E0,1.199889421E0
9.832633399E1,-9.857761383E0,-4.778611064E-1,-2.050286978E-1
9.837633399E1,-9.422049522E0,-7.749181986E-1,-5.172642469E-1
9.842633399E1,-8.194099426E0,-1.652384102E-1,7.172816396E-1
9.847633399E1,-6.789255142E0,5.220478177E-1,3.980289400E-1
9.852633399E1,-6.703548908E0,6.320843101E-1,1.274377346E0
9.857633399E1,-8.883295059E0,3.382640481E-1,-3.455221057E-1
9.862633399E1,-9.534898758E0,-7.082233429E-1,-2.026101053E-1
9.867633399E1,-9.475311279E0,-9.691042900E-1,5.254956484E-1
9.872633399E1,-8.545911789E0,-1.115459502E-1,-1.236518174E-1
9.877633399E1,-8.009681702E0,8.061088920E-1,7.218505144E-1
9.882633399E1,-8.419598579E0,5.193461776E-1,4.326244891E-1
9.887633399E1,-9.478343964E0,-7.361390591E-1,6.908586025E-1
9.892633399E1,-1.170950031E1,-1.533796191E0,9.777074680E-3
9.897633399E1,-1.007504272E1,-2.707769871E-1,7.125358582E-1
9.902633399E1,-8.869106293E0,1.424153805E0,9.497617483E-1
9.907633399E1,-7.680606365E0,1.676920652E0,7.249026746E-2
9.912633399E1,-6.985994816E0,6.767295599E-1,4.278183281E-1
9.917633399E1,-1.082288742E1,-8.069660664E-1,-2.121604234E-1
9.922633399E1,-1.221532726E1,-2.057121038E0,-4.087728262E-1
9.927633399E1,-1.050930214E1,-1.137258649E0,1.293564200E0
9.932633399E1,-8.249207497E0,3.940029144E-1,1.445316151E-2
9.937633399E1,-8.737291336E0,1.146963596E0,-1.460148245E-1
9.942633399E1,-1.171146011E1,1.017754197E0,-2.316937596E-1
9.947633399E1,-1.138570881E1,-1.092822850E-1,1.059359610E-1
9.952633399E1,-1.153424644E1,-1.052643180E0,2.081758678E-1
9.957633399E1,-9.460845947E0,-1.119220495E0,3.958749175E-1
9.962633399E1,-8.072532654E0,-3.279066384E-1,3.580602705E-1
9.967633399E1,-1.038878250E1,7.352509499E-1,-1.092778087E0
9.972633399E1,-9.214157104E0,6.541914940E-1,1.352823675E-1
9.977633399E1,-9.935498238E0,-2.371931225E-1,4.321733117E-1
9.982633399E1,-1.076367188E1,-6.474339962E-1,-7.833944559E-1
9.987633399E1,-9.474782944E0,-4.967095256E-1,3.428016305E-1
9.992633399E1,-9.597502708E0,-3.046343625E-1,-4.197459221E-1
9.997633399E1,-9.791564941E0,-1.755009145E-1,2.341940701E-1
1.000263340E2,-1.081062317E1,3.041374683E-1,7.682682872E-1
1.000763340E2,-1.091933060E1,4.253659248E-1,-1.958588660E-1
1.001263340E2,-1.082569695E1,-6.841625273E-2,7.896376848E-1
1.001763340E2,-1.063556862E1,-2.725028694E-1,-3.068569303E-1
1.002263340E2,-1.070557594E1,-1.290401965E-1,5.891299248E-2
1.002763340E2,-1.057707405E1,3.149662912E-1,4.191971421E-1
1.003263340E2,-9.497987747E0,1.025423646E0,-1.018172503E-1
