"Time (s)","Gyroscope x (rad/s)","Gyroscope y (rad/s)","Gyroscope z (rad/s)"
1.396003660E-1,-2.729734406E-4,-3.355592489E-4,2.198755974E-4
1.896003660E-1,1.233052462E-4,-1.129098004E-3,1.517549972E-3
2.396003660E-1,2.596583217E-4,-1.486065332E-3,2.063947031E-4
2.896003660E-1,3.945343196E-4,-1.138782129E-3,-3.262370592E-4
3.396003660E-1,2.596583217E-4,-9.787110612E-4,2.063947031E-4
3.896003660E-1,-2.729734406E-4,-4.460792989E-4,4.321545130E-4
4.396003660E-1,-2.729734406E-4,-4.460792989E-4,-2.795307664E-4
4.896003660E-1,-2.729734406E-4,-4.460792989E-4,7.390264655E-4
5.396003660E-1,-2.145385370E-4,-9.787110612E-4,1.668003621E-3
5.896003660E-1,6.504403427E-5,-1.180630876E-3,-3.189315321E-4
6.396003660E-1,-2.729734406E-4,-4.460792989E-4,-1.321518444E-3
6.896003660E-1,-2.729734406E-4,-4.460792989E-4,7.538901409E-4
7.396003660E-1,-2.729734406E-4,-4.460792989E-4,1.723186113E-3
7.896003660E-1,4.777931608E-4,-4.460792989E-4,-3.666082630E-4
8.396003660E-1,3.543172497E-4,-9.787110612E-4,-2.729420085E-4
8.896003660E-1,2.924283035E-5,-7.482955698E-4,7.390264655E-4
9.396003660E-1,6.560892798E-4,-1.375141786E-3,1.135457074E-3
9.896003660E-1,-2.729734406E-4,-8.232542314E-4,5.093798973E-5
1.039600366E0,-2.729734406E-4,-1.394826686E-3,2.258458408E-4
1.089600366E0,-2.729734406E-4,-4.460792989E-4,3.497449798E-4
1.139600366E0,-2.729734406E-4,-4.460792989E-4,-3.262370592E-4
1.189600366E0,-2.729734406E-4,-8.429582231E-4,7.064186502E-5
1.239600366E0,-2.729734406E-4,-1.511342824E-3,1.267854474E-3
1.289600366E0,-2.729734406E-4,-1.511342824E-3,7.390264655E-4
1.339600366E0,-2.729734406E-4,-4.460792989E-4,1.900602365E-4
1.389600366E0,-2.729734406E-4,-4.460792989E-4,-3.262370592E-4
1.439600366E0,6.287945434E-4,-4.460792989E-4,2.339208731E-4
1.489600366E0,-2.729734406E-4,-8.425631095E-4,1.174716395E-3
1.539600366E0,-2.729734406E-4,-1.336127520E-3,5.638111616E-4
1.589600366E0,1.236686949E-4,-4.460792989E-4,-7.734441897E-4
1.639600366E0,1.237541437E-4,-4.460792989E-4,2.569140634E-4
1.689600366E0,-6.691776216E-4,-4.460792989E-4,2.801960218E-4
1.739600366E0,-2.729734406E-4,-4.977500066E-5,-1.391500584E-3
1.789600366E0,-2.729734406E-4,-4.460792989E-4,-9.202311048E-4
1.839600366E0,-2.729734406E-4,-6.564548239E-4,5.286509404E-4
1.889600366E0,2.089855261E-4,-6.325247232E-4,-3.262370592E-4
1.939600366E0,3.452911042E-4,-1.064343727E-3,-3.262370592E-4
1.989600366E0,-9.871856309E-5,-6.203341763E-4,5.647716462E-4
2.039600366E0,-2.729734406E-4,-4.460792989E-4,-3.262370592E-4
2.089600366E0,-2.729734406E-4,-4.460792989E-4,5.768414703E-4
2.139600366E0,-2.729734406E-4,-1.511342824E-3,1.380771399E-3
2.189600366E0,1.222642604E-4,-1.906580525E-3,1.285274164E-3
2.239600366E0,-1.324177720E-5,-8.422555402E-4,-7.355926791E-4
2.289600366E0,-1.359628513E-4,-4.460792989E-4,7.357618888E-4
2.339600366E0,-2.729734406E-4,-1.511342824E-3,3.397360910E-3
2.389600366E0,6.642783992E-4,-1.503349631E-3,-1.676101587E-3
2.439600366E0,5.117154215E-4,-1.655044034E-4,-3.349171020E-3
2.489600366E0,-2.729734406E-4,-3.301668912E-4,2.541921102E-3
2.539600366E0,-2.729734406E-4,-1.134735299E-3,3.039308824E-3
2.589600366E0,2.596583217E-4,-5.510947667E-4,-4.167229403E-3
2.639600366E0,9.228941053E-5,-4.460792989E-4,-2.641654573E-3
2.689600366E0,-2.729734406E-4,-4.460792989E-4,5.210961681E-3
2.739600366E0,4.238868132E-5,-7.614414208E-4,2.667880151E-3
2.789600366E0,7.922903169E-4,-1.004800899E-3,-4.287936725E-3
2.839600366E0,6.784754805E-5,-1.170521951E-3,3.211863805E-5
2.889600366E0,-2.729734406E-4,-5.143715534E-4,3.131144680E-3
2.939600366E0,6.576813757E-5,-4.460792989E-4,-2.475392073E-3
2.989600366E0,7.922903169E-4,-4.985695705E-5,-1.352503779E-3
3.039600366E0,4.449789412E-5,-1.115600113E-3,2.552082296E-3
3.089600366E0,-1.810141839E-4,-9.308371227E-4,5.991931539E-4
3.139600366E0,4.291576333E-4,-4.460792989E-4,-2.456764225E-3
3.189600366E0,2.255197614E-4,-4.460792989E-4,-2.589097712E-4
3.239600366E0,-2.729734406E-4,-4.460792989E-4,1.429001219E-3
3.289600366E0,-2.729734406E-4,-4.460792989E-4,-3.052701941E-4
3.339600366E0,-2.729734406E-4,-8.324685041E-4,6.015214603E-5
3.389600366E0,-1.482767984E-4,-1.511342824E-3,6.143299979E-4
3.439600366E0,7.922903169E-4,-7.180703105E-4,4.670354538E-4
3.489600366E0,2.612196840E-4,-9.802721906E-4,7.390264655E-4
3.539600366E0,-1.440057531E-5,-7.046520477E-4,3.291191533E-4
3.589600366E0,6.438593846E-4,-9.657747578E-4,-1.778061269E-4
3.639600366E0,5.439328961E-4,-1.262985519E-3,-5.319691263E-5
3.689600366E0,-2.729734406E-4,-8.424918633E-4,-3.262370592E-4
3.739600366E0,1.236870885E-4,-4.460792989E-4,5.032745539E-4
3.789600366E0,-2.729734406E-4,-4.460792989E-4,7.390264655E-4
3.839600366E0,-2.729734406E-4,-4.460792989E-4,2.948088804E-4
3.889600366E0,7.922903169E-4,-1.511342824E-3,-3.262370592E-4
3.939600366E0,3.366034944E-4,-1.055656001E-3,-3.262370592E-4
3.989600366E0,-2.729734406E-4,-4.460792989E-4,5.436551291E-4
4.039600366E0,-2.729734406E-4,-4.460792989E-4,7.017282769E-5
4.089600366E0,-2.729734406E-4,-6.534075364E-4,7.041415665E-5
4.139600366E0,-2.729734406E-4,-1.511342824E-3,1.528499415E-4
4.189600366E0,-2.729734406E-4,-8.964468725E-4,7.044884842E-5
4.239600366E0,-2.729734406E-4,4.578847438E-5,-3.262370592E-4
4.289600366E0,-2.729734406E-4,-4.460792989E-4,-3.262370592E-4
4.339600366E0,1.239939593E-4,-9.500104934E-4,5.746615352E-4
4.389600366E0,-2.729734406E-4,-1.269307570E-3,-3.262370592E-4
4.439600366E0,-2.729734406E-4,-1.356501132E-3,-3.262370592E-4
4.489600366E0,-2.729734406E-4,-8.602840826E-4,9.939337615E-4
4.539600366E0,-2.729734406E-4,-9.731608443E-4,8.805274265E-4
4.589600366E0,3.898115829E-4,-8.430921007E-4,-5.920092808E-4
4.639600366E0,-1.416341402E-4,-9.787110612E-4,1.004434191E-3
4.689600366E0,1.230058260E-4,-1.393408747E-3,1.829365501E-4
4.739600366E0,2.418439835E-4,-1.215167809E-3,-1.391500584E-3
4.789600366E0,-2.729734406E-4,-3.203761298E-4,1.064347918E-3
4.839600366E0,-2.729734406E-4,-1.567073050E-3,1.748559764E-3
4.889600366E0,-2.729734406E-4,-2.044936176E-3,-6.263403920E-4
4.939600366E0,-2.729734406E-4,-1.754708472E-3,-3.660694929E-4
4.989600366E0,-2.729734406E-4,-1.907763304E-3,1.091156504E-3
5.039600366E0,-2.729734406E-4,-1.030887244E-3,7.710636128E-4
5.089600366E0,-2.729734406E-4,-1.907746308E-3,-1.546577550E-6
5.139600366E0,1.877844334E-4,-1.042714459E-3,1.207654830E-3
5.189600366E0,6.269337609E-5,-7.179123349E-4,8.000748930E-4
5.239600366E0,2.596583217E-4,1.911745407E-3,-3.873038804E-4
5.289600366E0,1.233764924E-4,-1.611983404E-3,-1.044127974E-3
5.339600366E0,7.432410493E-4,-1.685420517E-3,1.135569997E-3
5.389600366E0,3.662868403E-5,-2.179905074E-3,3.800661652E-4
5.439600366E0,-2.729734406E-4,-1.945350203E-3,1.077703200E-4
5.489600366E0,4.946687259E-4,-1.981363632E-3,4.414051073E-4
5.539600366E0,-1.369926613E-4,-1.003998099E-3,2.063947031E-4
5.589600366E0,4.091979936E-4,-6.298720837E-5,-7.225411246E-4
5.639600366E0,1.370985992E-4,-4.326890921E-4,-2.036771039E-4
5.689600366E0,-2.729734406E-4,1.133483369E-3,3.422116861E-4
5.739600366E0,1.261525322E-4,3.587864339E-4,-1.901203068E-4
5.789600366E0,-2.729734406E-4,2.053632401E-3,1.135598402E-3
5.839600366E0,1.235704403E-4,6.036844570E-4,9.930555243E-4
5.889600366E0,-2.729734406E-4,-6.347744493E-4,-9.112189291E-4
5.939600366E0,-1.155054197E-4,-9.250082076E-5,-3.262370592E-4
5.989600366E0,-3.366032615E-5,-7.178237429E-4,1.325663878E-3
6.039600366E0,-2.729734406E-4,-2.188400831E-4,5.699185422E-4
6.089600366E0,-2.729734406E-4,-6.734270137E-4,-3.262370592E-4
6.139600366E0,-9.292666800E-5,-4.915683530E-5,-5.062838318E-4
6.189600366E0,3.395248204E-4,-1.238301164E-3,-1.334846136E-3
6.239600366E0,-2.729734406E-4,-8.424504194E-4,3.651483916E-3
6.289600366E0,-2.729734406E-4,-1.307665720E-3,2.743536374E-3
6.339600366E0,1.238305122E-4,-4.460792989E-4,-2.593171783E-3
6.389600366E0,-2.729734406E-4,-4.938291386E-5,-8.247798542E-4
6.439600366E0,-2.729734406E-4,-4.460792989E-4,3.266307060E-3
6.489600366E0,-2.729734406E-4,-9.340216639E-4,1.009640750E-3
6.539600366E0,1.233383082E-4,-1.511342824E-3,5.261953338E-4
6.589600366E0,1.238067634E-4,-1.511342824E-3,2.201070078E-3
6.639600366E0,-2.729734406E-4,-4.460792989E-4,-5.323463120E-4
6.689600366E0,-2.729734406E-4,6.497325376E-5,-2.298880368E-3
6.739600366E0,1.235944219E-4,-6.966635119E-4,5.714989384E-4
6.789600366E0,6.462740712E-4,-1.511342824E-3,2.723537385E-3
6.839600366E0,5.298925098E-4,-1.511342824E-3,4.864213988E-4
6.889600366E0,2.572776284E-4,-1.508962014E-3,-8.564878954E-4
6.939600366E0,1.400941983E-6,-4.460792989E-4,3.448118805E-4
6.989600366E0,-1.505194232E-4,-4.460792989E-4,7.390264655E-4
7.039600366E0,-2.729734406E-4,-4.460792989E-4,7.390264655E-4
7.089600366E0,-2.729734406E-4,-4.460792989E-4,2.322643995E-4
7.139600366E0,-2.729734406E-4,-4.460792989E-4,3.421672154E-4
7.189600366E0,-2.729734406E-4,-4.460792989E-4,7.018338074E-4
7.239600366E0,-2.729734406E-4,-4.460792989E-4,-3.262370592E-4
7.289600366E0,-2.729734406E-4,-4.460792989E-4,2.063947031E-4
7.339600366E0,-2.729734406E-4,-8.428227156E-4,7.390264655E-4
7.389600366E0,-2.729734406E-4,-9.183672955E-4,2.063947031E-4
7.439600366E0,-2.729734406E-4,-8.424490225E-4,-3.262370592E-4
7.489600366E0,-2.729734406E-4,-4.460792989E-4,-3.262370592E-4
7.539600366E0,-2.729734406E-4,-4.460792989E-4,4.142812104E-4
7.589600366E0,-2.729734406E-4,-5.297407042E-4,2.063947031E-4
7.639600366E0,1.236435492E-4,-7.590062451E-4,4.260995192E-4
7.689600366E0,2.187066711E-4,-8.831273299E-4,7.390264655E-4
7.739600366E0,-6.976542063E-4,5.172463134E-4,7.390264655E-4
7.789600366E0,2.596583217E-4,-6.423606537E-4,4.828919191E-5
7.839600366E0,1.066420227E-4,-1.907790545E-3,-3.430695506E-4
7.889600366E0,2.596583217E-4,-4.248474725E-3,-1.754348050E-3
7.939600366E0,-6.641305517E-4,2.064873464E-3,8.418683428E-4
7.989600366E0,-2.783122472E-4,7.658728864E-4,8.857151261E-4
8.039600366E0,1.296410337E-4,-7.391339168E-3,-1.002078061E-3
8.089600366E0,-6.575384177E-4,3.258797340E-3,2.003797563E-4
8.139600366E0,3.957517911E-4,-3.127101809E-3,-7.760074222E-4
8.189600366E0,-3.104889765E-5,2.096040640E-3,2.658386715E-3
8.239600366E0,-5.150400102E-4,1.123949420E-3,1.919297967E-3
8.289600366E0,-1.071912702E-4,-3.401292488E-4,-2.202871256E-4
8.339600366E0,-4.385341890E-4,7.008328103E-4,8.626310155E-4
8.389600366E0,6.145993248E-4,-2.659202321E-3,1.646550372E-4
8.439600366E0,-1.119146124E-3,1.631721854E-3,5.199353327E-4
8.489600366E0,6.033773534E-4,-2.031840617E-3,3.425860777E-4
8.539600366E0,-2.729734406E-4,1.204217784E-3,7.390264655E-4
8.589600366E0,-2.811332233E-4,-1.300812932E-3,-1.238669502E-4
8.639600366E0,-2.647517249E-4,4.165631253E-4,1.686711796E-3
8.689600366E0,-4.262421280E-4,-1.077288762E-4,1.804289990E-3
8.739600366E0,-6.120791659E-5,-1.723108464E-3,4.389119567E-4
8.789600366E0,-2.729734406E-4,3.513786942E-4,2.946700552E-4
8.839600366E0,-2.729734406E-4,2.945112064E-4,2.128963126E-3
8.889600366E0,-9.054860566E-4,-1.188959810E-3,8.616475970E-4
8.939600366E0,5.843797699E-4,-9.847010951E-4,-1.382655348E-3
8.989600366E0,3.957999870E-4,-1.348108286E-3,-1.786419889E-4
9.039600366E0,7.922903169E-4,-4.186681472E-3,-1.391500584E-3
9.089600366E0,-1.393514685E-5,-3.149256110E-3,-2.715802751E-3
9.139600366E0,-1.356259454E-4,-1.114881132E-3,-2.062657382E-3
9.189600366E0,1.236703247E-4,-1.655372791E-3,3.423825838E-4
9.239600366E0,-2.628988586E-4,6.283922121E-4,8.547704201E-4
9.289600366E0,3.960919566E-4,-1.295331400E-3,-2.233398845E-4
9.339600366E0,2.596583217E-4,-1.760684419E-3,-1.391500584E-3
9.389600366E0,2.132146619E-5,-2.576606348E-3,-4.060167121E-4
9.439600366E0,-1.703328453E-4,2.427098341E-3,1.701649395E-3
9.489600366E0,-2.729734406E-4,4.759235308E-4,1.804289990E-3
9.539600366E0,-2.729734406E-4,4.514864646E-3,2.686866559E-3
9.589600366E0,-2.729734406E-4,6.981939077E-4,8.180359146E-4
9.639600366E0,2.596583217E-4,-4.799088929E-4,-3.262370592E-4
9.689600366E0,7.922903169E-4,-2.566409297E-3,-1.381303533E-3
9.739600366E0,2.596583217E-4,-1.710740849E-3,-9.952363325E-4
9.789600366E0,-2.729734406E-4,-1.495982520E-3,-3.108768724E-4
9.839600366E0,-2.729734406E-4,1.122425310E-4,1.749328920E-3
9.889600366E0,-2.729734406E-4,6.191846915E-4,2.201006748E-3
9.939600366E0,-2.729734406E-4,-3.572870046E-4,6.913559046E-4
9.989600366E0,9.180768393E-5,-5.067042075E-4,-2.946915338E-4
1.003960037E1,6.880571600E-4,-9.061807068E-4,-8.905715076E-4
1.008960037E1,1.233764924E-4,-1.218897058E-3,-6.186828250E-4
1.013960037E1,-2.729734406E-4,-5.821591476E-4,1.135578379E-3
1.018960037E1,-2.729734406E-4,-7.265587337E-4,1.135777566E-3
1.023960037E1,-1.459971536E-4,-1.761950552E-4,2.063947031E-4
1.028960037E1,7.922903169E-4,-1.381161390E-3,-3.262370592E-4
1.033960037E1,-1.333002001E-4,-1.775066252E-3,-7.226750022E-4
1.038960037E1,3.806466702E-4,2.560316119E-3,2.113773022E-3
1.043960037E1,-6.697862409E-4,2.995847724E-3,2.322063781E-3
1.048960037E1,-1.514933538E-3,-4.028290277E-4,1.381631475E-3
1.053960037E1,-2.729734406E-4,-2.309930976E-3,-1.176841441E-3
1.058960037E1,1.232591458E-4,-1.083724317E-3,-5.283234641E-4
1.063960037E1,1.236977987E-4,-3.038347233E-3,1.021965872E-4
1.068960037E1,-2.729734406E-4,-1.464747591E-3,-4.548180150E-4
1.073960037E1,1.235320233E-4,-1.412221696E-3,-1.106692827E-3
1.078960037E1,1.854435541E-4,1.233769581E-5,1.593759516E-3
1.083960037E1,-7.520033978E-5,-2.471818589E-4,5.412534229E-4
1.088960037E1,-7.405574434E-5,-1.041776733E-3,-2.534508239E-4
1.093960037E1,-2.729734406E-4,-1.302695833E-3,-1.175900688E-4
1.098960037E1,-2.729734406E-4,-4.460792989E-4,-1.389362151E-4
1.103960037E1,1.731158700E-4,-4.460792989E-4,1.198521350E-4
1.108960037E1,-2.729734406E-4,-4.460792989E-4,1.685236348E-4
1.113960037E1,-4.023872316E-5,-4.460792989E-4,5.062918644E-4
1.118960037E1,-1.079281792E-4,-8.414713666E-4,-3.262370592E-4
1.123960037E1,-2.729734406E-4,-4.460792989E-4,7.390264655E-4
1.128960037E1,-2.729734406E-4,-8.425975684E-4,7.390264655E-4
1.133960037E1,5.343239754E-4,-4.460792989E-4,3.293083282E-4
1.138960037E1,1.248195767E-4,-4.460792989E-4,-1.864185324E-4
1.143960037E1,-2.729734406E-4,-4.460792989E-4,-3.262370592E-4
1.148960037E1,-2.729734406E-4,-1.375194406E-3,-3.262370592E-4
1.153960037E1,-2.729734406E-4,-4.460792989E-4,3.500263556E-4
1.158960037E1,1.610615291E-4,-4.460792989E-4,2.063947031E-4
1.163960037E1,3.957198933E-4,-4.460792989E-4,-3.572355490E-5
1.168960037E1,2.596583217E-4,-4.460792989E-4,2.372686286E-4
1.173960037E1,-2.729734406E-4,-4.460792989E-4,3.860017750E-5
1.178960037E1,1.677542459E-4,-4.460792989E-4,-2.823007526E-4
1.183960037E1,-2.729734406E-4,-4.460792989E-4,7.390264655E-4
1.188960037E1,-2.729734406E-4,-4.460792989E-4,2.358566271E-4
1.193960037E1,-2.729734406E-4,-4.460792989E-4,-3.262370592E-4
1.198960037E1,-2.729734406E-4,-5.142015871E-4,6.020853762E-4
1.203960037E1,6.754277274E-5,-7.741386071E-4,1.427892130E-5
1.208960037E1,-1.377894077E-4,-4.460792989E-4,-2.696601441E-4
1.213960037E1,4.607578740E-5,-4.460792989E-4,2.281740308E-5
1.218960037E1,-2.729734406E-4,-9.312768234E-4,-2.788028214E-4
1.223960037E1,-2.729734406E-4,-4.460792989E-4,-3.262370592E-4
1.228960037E1,-2.729734406E-4,-4.460792989E-4,1.717889681E-4
1.233960037E1,-2.729734406E-4,-4.460792989E-4,4.664622247E-5
1.238960037E1,-2.729734406E-4,-4.460792989E-4,2.303665970E-4
1.243960037E1,-2.729734406E-4,-4.460792989E-4,-4.223885480E-5
1.248960037E1,-2.729734406E-4,-8.533193031E-4,2.063947031E-4
1.253960037E1,1.240880229E-4,-4.460792989E-4,7.390264655E-4
1.258960037E1,-2.729734406E-4,-4.460792989E-4,2.063765423E-4
1.263960037E1,1.354697160E-4,-4.460792989E-4,6.954662967E-5
1.268960037E1,2.471869811E-4,-4.460792989E-4,1.939231297E-4
1.273960037E1,1.477324404E-4,-8.428698638E-4,9.446882177E-5
1.278960037E1,-2.729734406E-4,-4.460792989E-4,7.076910697E-5
1.283960037E1,-2.729734406E-4,-4.460792989E-4,5.013431655E-4
1.288960037E1,-2.729734406E-4,-4.460792989E-4,1.720876899E-4
1.293960037E1,-2.729734406E-4,-4.460792989E-4,-3.262370592E-4
1.298960037E1,-2.729734406E-4,-4.460792989E-4,2.528550103E-4
1.303960037E1,-2.729734406E-4,-4.460792989E-4,2.837500069E-4
1.308960037E1,-2.729734406E-4,-4.460792989E-4,1.477010082E-4
1.313960037E1,1.932615414E-4,-9.123141645E-4,1.399978064E-4
1.318960037E1,1.234584488E-4,-6.521260366E-4,7.390264655E-4
1.323960037E1,-2.729734406E-4,-1.032939646E-3,-1.358443405E-4
1.328960037E1,-2.729734406E-4,-4.460792989E-4,1.245291205E-4
1.333960037E1,2.168768551E-4,-4.460792989E-4,-3.262370592E-4
1.338960037E1,-2.729734406E-4,-1.071780687E-3,5.100962589E-4
1.343960037E1,-2.729734406E-4,-6.139930338E-4,-3.262370592E-4
1.348960037E1,1.542968675E-4,-1.115225488E-3,4.971502931E-4
1.353960037E1,2.414407209E-4,-6.004890893E-4,7.020251360E-5
1.358960037E1,-2.729734406E-4,-4.460792989E-4,-7.299089339E-5
1.363960037E1,2.514431253E-4,-4.460792989E-4,7.390264655E-4
1.368960037E1,-2.729734406E-4,-4.460792989E-4,3.350073821E-4
1.373960037E1,-2.729734406E-4,-4.460792989E-4,2.063947031E-4
1.378960037E1,-2.729734406E-4,-7.230037590E-4,7.067702245E-5
1.383960037E1,-2.729734406E-4,-5.663625197E-4,6.187432446E-4
1.388960037E1,-2.729734406E-4,-4.460792989E-4,4.516210174E-4
1.393960037E1,6.831840146E-4,-9.518616134E-4,9.728840087E-5
1.398960037E1,4.926729016E-4,-4.460792989E-4,3.694047336E-4
1.403960037E1,-2.729734406E-4,-1.374806394E-3,2.466953592E-4
1.408960037E1,-2.729734406E-4,-1.155278878E-3,4.264601739E-4
1.413960037E1,2.084095031E-4,-1.011779183E-3,6.034601247E-4
1.418960037E1,7.689634804E-4,-1.735675498E-3,7.090158761E-5
1.423960037E1,-6.112130359E-5,1.825613435E-4,1.314709662E-4
1.428960037E1,3.964114003E-4,-4.460792989E-4,4.054046003E-4
1.433960037E1,3.353110515E-4,5.435314961E-4,1.196005498E-3
1.438960037E1,4.821969196E-5,-2.488284372E-5,7.890280103E-4
1.443960037E1,6.563416682E-4,-1.511342824E-3,-4.979120567E-4
1.448960037E1,4.814427812E-4,-8.428439032E-4,-1.383810188E-3
1.453960037E1,-2.338900231E-4,-2.738187322E-3,-1.895257737E-4
1.458960037E1,9.768758900E-5,-1.583611825E-3,1.135237166E-3
1.463960037E1,-2.471548505E-4,5.417289212E-4,1.642579096E-3
1.468960037E1,5.054874346E-4,-1.716197468E-3,-3.262370592E-4
1.473960037E1,-2.574850805E-4,3.166141454E-3,1.014092704E-4
1.478960037E1,1.233797520E-4,5.018613301E-4,1.132143196E-3
1.483960037E1,1.269620843E-4,6.143287756E-4,-4.607794108E-4
1.488960037E1,-2.810540609E-4,-2.816264285E-3,-3.181562060E-4
1.493960037E1,-2.568750642E-4,-6.076434162E-3,-1.407598960E-3
1.498960037E1,-2.054939978E-5,-2.819915302E-3,-8.310851408E-4
1.503960037E1,-2.729734406E-4,2.237695269E-3,1.490375493E-3
1.508960037E1,1.236880198E-4,-1.742585679E-3,1.458082465E-3
1.513960037E1,2.275430597E-4,-1.757854014E-3,-5.976288812E-4
1.518960037E1,-2.729734406E-4,2.105153631E-3,7.632843335E-4
1.523960037E1,-2.366807312E-4,-1.901683863E-3,1.588043058E-3
1.528960037E1,-1.554586925E-3,-5.463931244E-3,1.735970145E-3
1.533960037E1,-4.785121419E-4,-3.259156365E-3,-5.977102555E-4
1.538960037E1,3.294469789E-4,-1.313417917E-3,-9.286572458E-4
1.543960037E1,1.258411328E-3,-1.010831911E-4,-1.382305403E-3
1.548960037E1,-4.757724237E-4,1.834616996E-3,-1.326765632E-4
1.553960037E1,-4.878274631E-4,-7.523302920E-4,1.407697797E-3
1.558960037E1,-8.516001981E-4,-3.398976056E-3,-1.025670557E-3
1.563960037E1,-1.564242411E-4,-1.418164466E-3,-3.177329199E-4
1.568960037E1,-8.878335357E-4,-1.560987090E-3,1.513018040E-3
1.573960037E1,3.633766901E-4,-4.786679056E-4,7.716153050E-4
1.578960037E1,3.953180276E-4,-2.263356466E-3,-6.812784122E-4
1.583960037E1,1.242388971E-4,-3.595715389E-4,-3.262370592E-4
1.588960037E1,-2.729734406E-4,-2.723824000E-3,1.509854337E-3
1.593960037E1,3.847940825E-4,-8.535753004E-4,-1.803961350E-4
1.598960037E1,-1.335721463E-4,-1.986690331E-4,-4.656385863E-4
1.603960037E1,-7.005822845E-3,-2.626953181E-3,1.269075833E-2
1.608960037E1,-1.796524972E-3,1.577849500E-3,5.211594049E-3
1.613960037E1,1.116497442E-4,-5.641656462E-3,-4.029093543E-4
1.618960037E1,2.596583217E-4,-4.150110763E-3,-7.222549757E-4
1.623960037E1,1.979824156E-4,-4.608337767E-3,9.615573799E-4
1.628960037E1,8.716387674E-5,-4.994152114E-3,1.182583626E-3
1.633960037E1,-1.646265388E-3,-9.322818369E-3,3.914394882E-3
1.638960037E1,-1.870868728E-3,-8.911760524E-3,3.631315660E-3
1.643960037E1,-7.169922814E-3,1.928895339E-2,1.737912372E-2
1.648960037E1,2.194885164E-4,-1.548773702E-2,2.397960611E-2
1.653960037E1,1.857553725E-3,-5.578616634E-3,-1.327047474E-3
1.658960037E1,-4.050557036E-4,5.234788172E-3,-8.107280592E-4
1.663960037E1,4.347229376E-3,1.258855220E-3,-8.789652027E-3
1.668960037E1,-3.173858859E-4,7.343701087E-3,-8.126412285E-4
1.673960037E1,7.922903169E-4,3.257398494E-3,-1.634718035E-3
1.678960037E1,8.338959888E-4,4.974102601E-3,-2.048950177E-3
1.683960037E1,6.976879667E-4,1.193227014E-3,5.016230280E-4
1.688960037E1,1.615840476E-3,2.477949020E-3,8.448584122E-4
1.693960037E1,-2.729734406E-4,3.823090810E-4,3.607377294E-4
1.698960037E1,2.117956523E-3,-1.214800868E-3,1.746696769E-3
1.703960037E1,2.776042791E-3,-3.474635072E-3,4.536240012E-4
1.708960037E1,1.599426381E-3,2.694500145E-3,3.526921384E-3
1.713960037E1,3.899391741E-4,-4.294372164E-3,-1.112124068E-3
1.718960037E1,-3.723238595E-3,-4.949470051E-3,2.003260888E-4
1.723960037E1,-1.195981167E-3,4.104693420E-3,-3.154908307E-3
1.728960037E1,1.943788258E-3,6.439208984E-3,-9.665101534E-4
1.733960037E1,3.666689154E-4,-3.255840857E-4,1.135086059E-3
1.738960037E1,-2.729734406E-4,-4.953518510E-5,1.473408425E-3
1.743960037E1,1.641903073E-4,-4.925043322E-5,-7.634008070E-4
1.748960037E1,-2.729734406E-4,4.635076039E-5,-6.424578605E-4
1.753960037E1,-2.729734406E-4,-8.420284139E-4,1.188910916E-3
1.758960037E1,-2.729734406E-4,-1.321896445E-3,5.495800870E-4
1.763960037E1,-2.729734406E-4,-4.460792989E-4,-7.867467357E-4
1.768960037E1,7.187246811E-4,-6.439960562E-4,-5.966624012E-4
1.773960037E1,-4.706075415E-4,-6.449148059E-4,3.425565083E-4
1.778960037E1,3.962982446E-4,-9.036503034E-4,2.814554609E-4
1.783960037E1,3.079669550E-4,-4.460792989E-4,7.390264655E-4
1.788960037E1,3.954004496E-4,-8.429691661E-4,-5.495921941E-4
1.793960037E1,-9.936606511E-5,-4.460792989E-4,-1.391500584E-3
1.798960037E1,-3.836257383E-5,-6.806901656E-4,3.048115177E-4
1.803960037E1,3.960160539E-4,-1.115068793E-3,1.246521133E-3
1.808960037E1,-2.729734406E-4,-1.264625811E-3,1.979361754E-3
1.813960037E1,-2.729734406E-4,-8.431391325E-4,-1.759667648E-4
1.818960037E1,-2.729734406E-4,-4.460792989E-4,-6.832159124E-5
1.823960037E1,-2.729734406E-4,-4.460792989E-4,7.390264655E-4
1.828960037E1,-2.729734406E-4,-7.152680773E-4,7.310719229E-5
1.833960037E1,1.321984455E-4,-1.097504748E-3,-3.262370592E-4
1.838960037E1,-2.729734406E-4,-4.460792989E-4,3.512080293E-4
1.843960037E1,-2.729734406E-4,-4.460792989E-4,7.390264655E-4
1.848960037E1,2.128561027E-5,-4.460792989E-4,4.858255852E-5
1.853960037E1,-1.370105892E-4,-4.460792989E-4,1.379740424E-4
1.858960037E1,9.017158300E-5,-8.430965245E-4,7.390264655E-4
1.863960037E1,-2.291807905E-4,-9.349182947E-4,2.063947031E-4
1.868960037E1,7.893238217E-5,-8.419868536E-4,-3.262370592E-4
1.873960037E1,2.022986300E-4,-8.999719284E-4,1.850153785E-4
1.878960037E1,-2.729734406E-4,-4.460792989E-4,3.420766443E-4
1.883960037E1,-2.729734406E-4,-4.460792989E-4,-2.580647124E-4
1.888960037E1,-2.729734406E-4,-4.460792989E-4,4.098463105E-4
1.893960037E1,-2.729734406E-4,-4.460792989E-4,2.858143416E-4
1.898960037E1,1.236638054E-4,-4.460792989E-4,3.875550465E-4
1.903960037E1,2.144270111E-4,-1.466111396E-3,-2.354840981E-4
1.908960037E1,1.225485466E-4,-7.515783655E-4,3.435044782E-4
1.913960037E1,-2.729734406E-4,-4.460792989E-4,3.111559199E-4
1.918960037E1,1.034741290E-4,-4.460792989E-4,7.390264655E-4
1.923960037E1,-2.522612922E-4,-4.460792989E-4,-3.055247944E-4
1.928960037E1,1.237215474E-4,-4.460792989E-4,5.981058348E-5
1.933960037E1,-2.729734406E-4,-8.530113846E-4,6.133267307E-4
1.938960037E1,-2.729734406E-4,-4.460792989E-4,-3.262370592E-4
1.943960037E1,-2.729734406E-4,-4.460792989E-4,-3.262370592E-4
1.948960037E1,-2.729734406E-4,-4.460792989E-4,-3.262370592E-4
1.953960037E1,1.235399395E-4,-4.460792989E-4,-1.766820205E-4
1.958960037E1,1.232952345E-4,-4.460792989E-4,3.427579068E-4
1.963960037E1,-2.729734406E-4,-4.460792989E-4,5.770898424E-4
1.968960037E1,-2.729734406E-4,-4.460792989E-4,-3.262370592E-4
1.973960037E1,-2.729734406E-4,-1.338462578E-3,7.390264655E-4
1.978960037E1,1.234342344E-4,-4.460792989E-4,7.390264655E-4
1.983960037E1,-2.729734406E-4,-4.460792989E-4,1.575876959E-4
1.988960037E1,1.238500699E-4,-4.460792989E-4,-3.262370592E-4
1.993960037E1,-2.729734406E-4,-4.460792989E-4,3.423563903E-4
1.998960037E1,-2.729734406E-4,-4.460792989E-4,-1.256432151E-4
2.003960037E1,-2.729734406E-4,-8.424120024E-4,1.340537565E-4
2.008960037E1,-2.729734406E-4,-4.460792989E-4,-3.262370592E-4
2.013960037E1,-5.334708840E-5,-4.460792989E-4,-3.262370592E-4
2.018960037E1,-9.620701894E-5,-4.460792989E-4,-3.262370592E-4
2.023960037E1,-2.729734406E-4,-8.424906991E-4,-3.262370592E-4
2.028960037E1,2.313028090E-4,-8.429599693E-4,5.749196862E-4
2.033960037E1,1.239643898E-4,-8.430170128E-4,7.070065476E-5
2.038960037E1,-2.729734406E-4,-1.357651083E-3,5.853347247E-4
2.043960037E1,-2.729734406E-4,-4.460792989E-4,7.390264655E-4
2.048960037E1,-2.729734406E-4,-9.725848213E-4,7.390264655E-4
2.053960037E1,-6.666406989E-6,-4.460792989E-4,7.624074351E-5
2.058960037E1,3.830490168E-4,-9.787110612E-4,-3.262370592E-4
2.063960037E1,-2.729734406E-4,-8.359641070E-4,-3.262370592E-4
2.068960037E1,-2.729734406E-4,-8.784277597E-4,6.387431640E-4
2.073960037E1,1.701712608E-5,-1.221352257E-3,8.278991445E-4
2.078960037E1,7.627208252E-4,-4.460792989E-4,-2.966675675E-4
2.083960037E1,-2.729734406E-4,-1.144196372E-3,1.040379400E-3
2.088960037E1,-2.729734406E-4,-1.019462710E-3,7.935296162E-4
2.093960037E1,4.041800275E-5,-8.015902713E-4,-6.396285025E-4
2.098960037E1,2.596583217E-4,-4.460792989E-4,-1.338506700E-3
2.103960037E1,-2.729734406E-4,-4.460792989E-4,7.054372691E-5
2.108960037E1,-2.729734406E-4,-9.148470126E-4,1.343513140E-4
2.113960037E1,-2.729734406E-4,-8.423565887E-4,1.040811185E-5
2.118960037E1,-2.729734406E-4,-9.189316770E-4,7.390264655E-4
2.123960037E1,1.236363314E-4,-4.460792989E-4,-6.309710443E-6
2.128960037E1,-2.729734406E-4,-5.338836927E-4,-7.710644277E-4
2.133960037E1,1.231576316E-4,-7.190804463E-4,7.906057872E-4
2.138960037E1,2.596583217E-4,-4.820384784E-4,1.207479974E-3
2.143960037E1,2.358015627E-5,-1.214789227E-3,-2.968357876E-5
2.148960037E1,2.346429974E-4,-4.710948560E-4,2.063947031E-4
2.153960037E1,-2.729734406E-4,-4.460792989E-4,3.550700494E-4
2.158960037E1,-2.729734406E-4,-5.696935114E-4,-4.498512717E-4
2.163960037E1,-2.729734406E-4,-7.192485500E-4,5.878892262E-4
2.168960037E1,2.580790315E-4,-5.786746042E-4,6.080103922E-4
2.173960037E1,1.343207667E-3,-3.282231744E-3,-4.704974126E-4
2.178960037E1,-1.171052456E-3,2.186067402E-3,-1.119156717E-3
2.183960037E1,7.700705901E-4,-1.826451859E-3,-3.262370592E-4
2.188960037E1,3.513530828E-4,-1.633423381E-4,5.808263086E-4
2.193960037E1,1.237343531E-4,-1.669559395E-3,-7.563018007E-4
2.198960037E1,-2.729734406E-4,-3.432123922E-4,-4.865252413E-4
2.203960037E1,-2.729734406E-4,-4.460792989E-4,2.247130033E-3
2.208960037E1,-2.729734406E-4,-4.460792989E-4,6.460740697E-4
2.213960037E1,-2.729734406E-4,-4.905951209E-5,-1.574074035E-3
2.218960037E1,-2.729734406E-4,-4.460792989E-4,4.564135452E-4
2.223960037E1,-2.729734406E-4,-4.460792989E-4,1.338598202E-3
2.228960037E1,1.902729273E-4,-6.516419817E-4,-9.282542160E-4
2.233960037E1,-2.729734406E-4,-1.114500221E-3,-9.141679620E-4
2.238960037E1,-2.729734406E-4,-8.983589942E-4,1.136100153E-3
2.243960037E1,1.233189832E-4,-4.460792989E-4,2.509773476E-4
2.248960037E1,-2.729734406E-4,-1.070507802E-3,-9.806861635E-5
2.253960037E1,-2.729734406E-4,-1.511342824E-3,1.636233297E-3
2.258960037E1,5.522700958E-4,-4.460792989E-4,-1.376760192E-4
2.263960037E1,1.237099059E-4,-4.460792989E-4,-8.794715395E-4
2.268960037E1,1.440579072E-4,-4.460792989E-4,7.390264655E-4
2.273960037E1,-2.729734406E-4,-1.366841141E-3,1.135270926E-3
2.278960037E1,1.237087417E-4,-1.114660641E-3,7.835717406E-5
2.283960037E1,-2.729734406E-4,-5.789452698E-4,-3.234817414E-4
2.288960037E1,-2.729734406E-4,-4.954938777E-5,-2.065812005E-4
2.293960037E1,-2.729734406E-4,-4.460792989E-4,-4.477693001E-4
2.298960037E1,1.235762611E-4,-4.460792989E-4,-3.262370592E-4
2.303960037E1,-2.729734406E-4,-8.955957601E-4,-3.262370592E-4
2.308960037E1,-2.729734406E-4,-8.165168110E-4,3.685888951E-4
2.313960037E1,-2.729734406E-4,-4.460792989E-4,1.687894110E-4
2.318960037E1,-2.729734406E-4,-4.460792989E-4,-3.753098426E-4
2.323960037E1,-2.729734406E-4,-9.431489743E-4,1.768727903E-3
2.328960037E1,-2.729734406E-4,-1.511342824E-3,1.827911008E-3
2.333960037E1,7.178727537E-4,-1.450133510E-3,-7.232417120E-4
2.338960037E1,6.281398237E-5,-4.460792989E-4,7.359918673E-4
2.343960037E1,-2.729734406E-4,-9.787110612E-4,2.805782715E-3
2.348960037E1,-2.729734406E-4,-1.114878338E-3,1.091977581E-3
2.353960037E1,6.564096548E-4,-9.787110612E-4,-2.938068006E-3
2.358960037E1,-2.729734406E-4,3.071227111E-4,-9.447970660E-4
2.363960037E1,-2.729734406E-4,-4.066574620E-4,3.565952182E-3
2.368960037E1,9.545776993E-5,-7.764808834E-5,-2.293573227E-3
2.373960037E1,2.596583217E-4,-5.251195980E-4,-2.984721214E-3
2.378960037E1,-2.729734406E-4,-1.891357359E-3,7.131933235E-3
2.383960037E1,-1.534172334E-4,-1.821362181E-3,3.386536147E-3
2.388960037E1,1.183805987E-3,-5.456339568E-5,-5.886580795E-3
2.393960037E1,1.343362965E-4,-4.403782077E-5,-1.015534042E-3
2.398960037E1,-9.345300496E-4,-1.107635908E-3,5.534222815E-3
2.403960037E1,2.671852708E-4,-3.022919409E-4,-1.037608599E-4
2.408960037E1,1.188956201E-3,-6.091587711E-4,-3.087016754E-3
2.413960037E1,3.636348993E-5,-2.162223216E-3,1.086371252E-3
2.418960037E1,1.064758282E-3,-2.831190825E-3,1.849563560E-4
2.423960037E1,-6.274324842E-4,-1.175412443E-3,-2.287235111E-3
2.428960037E1,-6.905277260E-4,-1.429607160E-3,-3.687207354E-4
2.433960037E1,1.236777753E-4,-2.795021050E-3,3.266204614E-3
2.438960037E1,-2.729734406E-4,-1.114391489E-3,-1.416701940E-3
2.443960037E1,6.861994043E-4,-6.783055142E-5,-4.499505274E-3
2.448960037E1,1.227871981E-4,-5.616879789E-4,2.108750399E-3
2.453960037E1,-1.937407069E-3,-1.847277279E-3,3.598882351E-3
2.458960037E1,6.078302395E-4,-2.451328561E-3,-8.879943052E-4
2.463960037E1,-4.281671718E-4,-2.363538370E-3,-1.023238874E-3
2.468960037E1,2.873479389E-5,-2.334371675E-4,1.620652154E-3
2.473960037E1,-2.192575485E-4,-8.897586958E-4,-3.327578306E-4
2.478960037E1,1.064759213E-3,1.443095505E-3,-1.166377566E-3
2.483960037E1,-2.031240147E-4,-2.771119354E-3,-8.156732656E-5
2.488960037E1,-2.729734406E-4,-2.089170739E-4,3.266429529E-3
2.493960037E1,1.477808692E-4,-8.423344698E-4,5.152716185E-4
2.498960037E1,7.681755815E-4,7.449556142E-5,-1.119342982E-3
2.503960037E1,3.954530694E-4,-3.732438199E-5,1.655206783E-3
2.508960037E1,2.603051253E-4,-8.424777770E-4,2.337568440E-3
2.513960037E1,2.128510736E-3,4.628989846E-3,6.483348086E-3
2.518960037E1,3.047900507E-3,9.945462458E-3,1.350589655E-2
2.523960037E1,1.492893323E-3,1.241781376E-2,3.225906193E-2
2.528960037E1,-6.934767589E-4,1.341837365E-2,3.960910812E-2
2.533960037E1,7.988380268E-3,1.204602048E-2,2.448409423E-2
2.538960037E1,5.067241937E-2,3.623929247E-2,-8.444193751E-2
2.543960037E1,2.196513712E-1,-1.264180522E-2,-2.268727720E-1
2.548960037E1,7.006664276E-1,1.197876483E-1,-2.257802784E-1
2.553960037E1,1.927734017E-1,1.724439561E-1,-9.991057962E-2
2.558960037E1,-1.029604152E-1,-9.857342392E-2,5.030236207E-3
2.563960037E1,-1.928938553E-3,-1.219809987E-3,4.553996958E-3
2.568960037E1,-1.272871345E-1,-1.243313104E-1,3.121376503E-3
2.573960037E1,5.052256584E-2,4.911430925E-2,-2.814057283E-3
2.578960037E1,5.089011043E-2,4.959717393E-2,2.931771334E-3
2.583960037E1,-3.308045864E-2,-3.285724297E-2,8.988811634E-3
2.588960037E1,1.326728705E-2,1.123575773E-2,1.483784290E-4
2.593960037E1,-1.373545080E-2,-1.354345866E-2,8.607534692E-4
2.598960037E1,-3.471591324E-2,-3.435638547E-2,5.865951534E-3
2.603960037E1,8.170147426E-3,7.636719383E-3,2.563385060E-4
2.608960037E1,-2.001002431E-2,-1.966209710E-2,3.347818274E-3
2.613960037E1,-2.574403025E-2,-2.743000537E-2,1.186632551E-3
2.618960037E1,7.814481854E-3,5.526808091E-3,-3.108929377E-3
2.623960037E1,-8.515324444E-4,-1.160922460E-3,-2.466077916E-3
2.628960037E1,-2.429840714E-2,-2.355384454E-2,2.869553398E-3
2.633960037E1,1.385089010E-2,1.304246485E-2,1.233853400E-3
2.638960037E1,-6.501869112E-2,-6.604547799E-2,7.384333294E-4
2.643960037E1,5.145248026E-2,4.893027246E-2,-8.061846718E-3
2.648960037E1,-9.887920320E-2,-9.695746005E-2,7.017713506E-5
2.653960037E1,1.046632901E-1,1.016081870E-1,-9.401099756E-3
2.658960037E1,-4.509422928E-3,-6.989098154E-3,1.654749736E-3
2.663960037E1,5.494886637E-2,5.187767744E-2,-2.772494918E-4
2.668960037E1,6.378606707E-2,5.567143857E-2,-3.834957257E-2
2.673960037E1,6.750990450E-2,6.390088052E-2,-1.583440229E-2
2.678960037E1,-5.984060466E-3,-4.029708914E-3,1.226454042E-2
2.683960037E1,3.159641474E-2,3.055496886E-2,-1.346504898E-3
2.688960037E1,-1.036250219E-2,-1.174916234E-2,-4.377753939E-3
2.693960037E1,1.637306530E-3,-1.062272117E-3,-1.765462221E-3
2.698960037E1,-2.153273206E-3,-3.393137828E-3,-7.226142334E-4
2.703960037E1,1.730742864E-3,1.335001551E-3,-1.016224385E-3
2.708960037E1,1.630872302E-2,1.483682450E-2,-3.131453414E-3
2.713960037E1,-2.122425288E-2,-2.183233202E-2,1.256461255E-4
2.718960037E1,1.920034178E-2,1.607633755E-2,-2.283227164E-3
2.723960037E1,1.801901683E-2,1.519806217E-2,-8.393082768E-3
2.728960037E1,9.697036818E-3,8.458667435E-3,-6.561304443E-3
2.733960037E1,2.047760598E-2,2.016542852E-2,1.268506399E-3
2.738960037E1,-7.779526524E-3,-7.688926533E-3,-1.788497320E-3
2.743960037E1,2.247972600E-2,2.121755481E-2,-4.313763231E-3
2.748960037E1,1.334860642E-2,1.121970266E-2,-2.448558342E-3
2.753960037E1,-1.589782164E-2,-1.658267528E-2,-3.250072710E-3
2.758960037E1,1.562221162E-2,1.505208295E-2,-9.106321959E-4
2.763960037E1,2.043385059E-3,2.371462528E-3,-2.425316256E-3
2.768960037E1,1.531308051E-3,3.537698649E-4,-3.870700020E-4
2.773960037E1,9.492021054E-4,1.123253256E-3,-1.298763673E-3
2.778960037E1,-6.236684509E-3,-7.478874177E-3,-1.745314919E-3
2.783960037E1,-2.749520540E-2,-2.729968727E-2,-2.210753504E-3
2.788960037E1,-2.290733904E-2,-2.168802172E-2,7.244537119E-4
2.793960037E1,-5.571524799E-2,-5.442084372E-2,1.804289990E-3
2.798960037E1,1.665801508E-3,1.162524568E-3,7.309022476E-4
2.803960037E1,-4.763879627E-2,-4.633108154E-2,2.262368798E-4
2.808960037E1,-2.528162487E-2,-2.509293705E-2,5.929329898E-3
2.813960037E1,2.314766683E-2,2.341604978E-2,1.881291531E-2
2.818960037E1,-1.102631316E-1,-1.093359888E-1,6.314926781E-3
2.823960037E1,1.198972538E-1,1.164736375E-1,-2.915044781E-3
2.828960037E1,-1.077352092E-1,-1.060728282E-1,9.625073289E-4
2.833960037E1,5.656887591E-2,5.528299883E-2,2.153355395E-3
2.838960037E1,1.308783144E-2,1.116968039E-2,-6.959498860E-3
2.843960037E1,-1.304551400E-2,-1.336563472E-2,-5.301078781E-3
2.848960037E1,4.393788427E-2,4.242752492E-2,1.532297232E-3
2.853960037E1,-5.390738137E-3,-5.960141309E-3,6.024157628E-4
2.858960037E1,-3.479919583E-2,-3.390704095E-2,-1.786977868E-3
2.863960037E1,-3.455867618E-2,-3.327135742E-2,2.965074731E-3
2.868960037E1,-4.624985158E-2,-4.511106014E-2,6.502404343E-3
2.873960037E1,-7.607386261E-2,-7.529276609E-2,1.644571894E-3
2.878960037E1,-8.208215237E-3,-9.008227848E-3,1.171044889E-3
2.883960037E1,-1.001994871E-2,-9.624280967E-3,7.390264655E-4
2.888960037E1,-8.771470934E-2,-8.726674318E-2,-1.493641175E-4
2.893960037E1,1.139937434E-2,1.016100589E-2,-1.788528520E-3
2.898960037E1,-3.511518706E-3,-5.146410316E-3,3.110166872E-4
2.903960037E1,2.823503222E-3,1.189453527E-3,1.330000581E-3
2.908960037E1,1.517947298E-2,1.480573695E-2,4.711868241E-4
2.913960037E1,-6.083830446E-2,-5.927773193E-2,-1.184967114E-4
2.918960037E1,-1.561413892E-2,-1.676347479E-2,-2.187498612E-4
2.923960037E1,-7.259642705E-3,-8.755064569E-3,-5.591473309E-4
2.928960037E1,-1.284953021E-2,-1.343396399E-2,3.427097108E-4
2.933960037E1,7.233199198E-3,6.557505578E-3,1.365847536E-3
2.938960037E1,1.441647764E-2,1.391083468E-2,9.052943205E-4
2.943960037E1,-1.899250038E-2,-1.940688491E-2,-1.175239799E-3
2.948960037E1,3.186010569E-2,2.971124649E-2,-1.546280342E-3
2.953960037E1,-3.197056055E-2,-3.163377196E-2,1.089984667E-3
2.958960037E1,1.432815939E-2,1.351521444E-2,3.704307601E-4
2.963960037E1,7.978332229E-3,7.137194276E-3,-6.159546319E-5
2.968960037E1,-1.955733635E-2,-2.039508522E-2,1.667729346E-3
2.973960037E1,1.746170688E-3,1.181459054E-3,6.537011359E-5
2.978960037E1,1.687810756E-3,1.101083588E-3,-8.419003570E-4
2.983960037E1,-7.370444015E-3,-7.940415293E-3,-3.770191688E-5
2.988960037E1,8.305609226E-4,2.333559096E-4,1.190480543E-3
2.993960037E1,1.202423964E-2,1.155031472E-2,1.503471518E-3
2.998960037E1,-8.160604164E-3,-8.961761370E-3,-2.308179392E-4
3.003960037E1,2.336079255E-3,1.722332090E-3,-1.392641570E-5
3.008960037E1,-8.569976315E-3,-9.157108143E-3,1.668704674E-3
3.013960037E1,3.260543570E-2,3.089672700E-2,-6.262544775E-4
3.018960037E1,-5.051355809E-2,-5.250303447E-2,-1.454330864E-3
3.023960037E1,1.563784108E-2,1.625452563E-2,7.254735101E-5
3.028960037E1,-9.129754268E-3,-1.082540862E-2,-7.229286712E-4
3.033960037E1,9.214577265E-3,8.025903255E-3,-7.726437179E-4
3.038960037E1,2.093672752E-2,1.964879036E-2,1.582005061E-3
3.043960037E1,-8.006906137E-3,-8.170684800E-3,3.195973113E-5
3.048960037E1,-2.570676059E-2,-2.599800378E-2,3.325263038E-3
3.053960037E1,-3.802178428E-3,-4.969060421E-3,1.291108434E-3
3.058960037E1,-5.535198376E-3,-4.162894562E-3,-2.717276569E-3
3.063960037E1,-6.845856551E-4,-9.526450885E-4,3.169338685E-3
3.068960037E1,-7.758615538E-4,-1.602530247E-3,1.989000011E-3
3.073960037E1,5.167338531E-4,-7.216357626E-4,-2.853019163E-3
3.078960037E1,2.596583217E-4,-1.109085046E-3,1.928850310E-3
3.083960037E1,-2.729734406E-4,-7.093308959E-4,2.718528267E-3
3.088960037E1,-1.282393932E-4,-4.460792989E-4,-1.932876068E-3
3.093960037E1,7.922903169E-4,-4.460792989E-4,-8.082032437E-4
3.098960037E1,-2.729734406E-4,-9.578145109E-4,2.911346965E-3
3.103960037E1,1.238677651E-4,-8.429202717E-4,1.030203886E-3
3.108960037E1,1.237513497E-4,-4.460792989E-4,-3.354471177E-3
3.113960037E1,-2.729734406E-4,-4.460792989E-4,4.916386679E-4
3.118960037E1,-2.729734406E-4,-6.271796301E-4,2.507352736E-3
3.123960037E1,-2.729734406E-4,-1.114749815E-3,-9.615767049E-4
3.128960037E1,2.029249445E-4,-6.383203436E-4,-6.098941667E-4
3.133960037E1,-2.729734406E-4,-1.048175618E-3,1.599258860E-3
3.138960037E1,-7.024477236E-5,-4.460792989E-4,-4.594604252E-4
3.143960037E1,-7.965136319E-5,-9.223232046E-4,-1.310954452E-3
3.148960037E1,-2.729734406E-4,-1.511342824E-3,1.964747906E-3
3.153960037E1,-2.729734406E-4,-1.022928162E-3,1.495902427E-3
3.158960037E1,1.682457514E-4,-4.460792989E-4,-1.391500584E-3
3.163960037E1,-2.729734406E-4,-4.460792989E-4,-3.950304817E-4
3.168960037E1,-3.437697887E-5,-4.460792989E-4,1.135206199E-3
3.173960037E1,2.812170424E-4,-1.353635686E-3,2.279531909E-4
3.178960037E1,-2.254033461E-5,-1.114683691E-3,3.208553535E-4
3.183960037E1,-1.266496256E-4,-1.114504761E-3,7.390264655E-4
3.188960037E1,1.343954355E-4,-4.460792989E-4,-5.874771159E-4
3.193960037E1,-2.729734406E-4,-4.460792989E-4,-4.602175904E-4
3.198960037E1,1.232402865E-4,-1.116631320E-3,1.013364759E-3
3.203960037E1,2.458784729E-4,-1.497562742E-3,1.271658228E-3
3.208960037E1,1.238782424E-4,-4.460792989E-4,5.702488124E-5
3.213960037E1,-2.729734406E-4,-4.702985752E-4,2.063947031E-4
3.218960037E1,-2.729734406E-4,-8.178602438E-4,7.390264655E-4
3.223960037E1,-2.729734406E-4,-4.831745755E-4,7.019311306E-4
3.228960037E1,-2.729734406E-4,-1.202594955E-3,-1.748919021E-5
3.233960037E1,-2.254475839E-4,-4.460792989E-4,7.390264655E-4
3.238960037E1,7.620826364E-5,-4.460792989E-4,-2.965722233E-4
3.243960037E1,6.558103487E-4,-5.056478549E-4,-4.031484714E-4
3.248960037E1,-2.729734406E-4,-1.511342824E-3,4.023702932E-4
3.253960037E1,-2.729734406E-4,-9.787110612E-4,2.063947031E-4
3.258960037E1,-2.729734406E-4,-4.460792989E-4,-3.262370592E-4
3.263960037E1,-2.729734406E-4,-5.295139272E-4,-2.428024309E-4
3.268960037E1,8.246116340E-5,-1.114653191E-3,1.135716098E-3
3.273960037E1,-1.371593680E-4,-4.874276929E-4,3.008604399E-4
3.278960037E1,7.922903169E-4,-1.209233073E-3,3.426108160E-4
3.283960037E1,-2.432339825E-4,-1.267957967E-3,7.390264655E-4
3.288960037E1,-1.804705709E-3,-4.108338617E-3,7.390264655E-4
3.293960037E1,-3.089676611E-4,-2.156674629E-3,-1.899718773E-4
3.298960037E1,-1.172226854E-3,-3.014680697E-3,7.390264655E-4
3.303960037E1,1.112341415E-4,-8.475083159E-4,2.063947031E-4
3.308960037E1,-9.424383752E-4,-3.648828715E-3,-7.289947243E-4
3.313960037E1,-3.825161606E-3,-3.998267464E-3,3.559191246E-4
3.318960037E1,1.239352860E-4,7.797200233E-4,1.804289990E-3
3.323960037E1,-1.199310645E-4,6.916164421E-5,1.101224916E-3
3.328960037E1,-2.959300764E-5,-4.460792989E-4,-3.262370592E-4
3.333960037E1,1.188936760E-3,2.225378994E-4,1.300592674E-3
3.338960037E1,3.954858985E-4,-1.047750004E-3,9.708227590E-4
3.343960037E1,-8.020107634E-4,-1.327808015E-3,-5.391776795E-4
3.348960037E1,-1.221816521E-3,-2.284056973E-3,-6.495622220E-4
3.353960037E1,1.289624255E-3,6.788712926E-4,2.177455463E-3
3.358960037E1,3.134491853E-4,1.485552639E-5,1.135943574E-3
3.363960037E1,-2.729734406E-4,-1.242111903E-3,2.702811034E-4
3.368960037E1,5.953146610E-4,-2.576606348E-3,7.390264655E-4
3.373960037E1,3.354761284E-4,-9.909828659E-4,8.906619041E-4
3.378960037E1,3.080647439E-4,-2.092381008E-3,4.392294213E-4
3.383960037E1,-2.729734406E-4,-1.511342824E-3,-3.262370592E-4
3.388960037E1,-2.729734406E-4,-1.511342824E-3,1.061007264E-3
3.393960037E1,-2.402514219E-3,-3.244421445E-3,1.172789373E-3
3.398960037E1,-4.118024372E-4,-2.046779031E-3,-1.647399040E-4
3.403960037E1,-2.729734406E-4,-6.673492026E-4,6.978085730E-5
3.408960037E1,-1.496265177E-4,-1.511342824E-3,5.900500109E-4
3.413960037E1,-1.418590546E-5,-4.915939644E-5,3.294700873E-4
3.418960037E1,2.615973353E-4,-4.460792989E-4,1.531718532E-3
3.423960037E1,1.331669861E-3,4.608419258E-4,1.533670467E-3
3.428960037E1,-8.348622359E-4,-9.596595773E-4,1.961890375E-4
3.433960037E1,1.910980791E-5,-2.690865658E-4,-8.279177127E-4
3.438960037E1,3.789914539E-3,4.170202650E-3,6.775799207E-3
3.443960037E1,-1.390113495E-3,-5.805413239E-3,1.650709775E-3
3.448960037E1,-9.827081114E-3,-7.144097239E-3,-7.569215959E-4
3.453960037E1,-9.756810032E-4,-6.631142460E-4,7.390264655E-4
3.458960037E1,-3.644311801E-4,1.060358249E-3,6.475686096E-4
3.463960037E1,4.440732300E-5,5.844521802E-4,-3.262370592E-4
3.468960037E1,9.286645800E-4,7.555591874E-4,6.603742950E-4
3.473960037E1,1.537138713E-3,2.148403786E-3,7.390264655E-4
3.478960037E1,1.922580414E-4,-2.238170477E-3,-2.588367788E-4
3.483960037E1,-2.729734406E-4,-1.182646258E-3,1.423875801E-5
3.488960037E1,-2.729734406E-4,-3.449934768E-3,-7.226950256E-4
3.493960037E1,-6.253407337E-4,-3.294206690E-4,2.613023389E-5
3.498960037E1,2.617491409E-4,1.016173977E-3,1.180533087E-3
3.503960037E1,4.292435478E-4,2.800142393E-4,3.759797546E-4
3.508960037E1,-2.729734406E-4,-4.460792989E-4,-1.255355193E-3
3.513960037E1,4.986287095E-4,-2.201417694E-3,-3.262370592E-4
3.518960037E1,-1.368550584E-4,-2.022699919E-3,7.177518564E-4
3.523960037E1,8.739531040E-6,-3.214017488E-4,3.521228791E-4
3.528960037E1,-2.729734406E-4,-4.460790660E-4,2.063947031E-4
3.533960037E1,1.235879026E-4,2.243935596E-4,7.390264655E-4
3.538960037E1,2.615281846E-4,3.393646795E-3,1.273527974E-3
3.543960037E1,7.922903169E-4,-1.525982865E-3,1.760729356E-4
3.548960037E1,-2.729734406E-4,-1.453439938E-3,-3.371401690E-3
3.553960037E1,-2.729734406E-4,-3.502642037E-3,-3.702332033E-4
3.558960037E1,-6.697953213E-4,-2.341094660E-3,2.708243206E-3
3.563960037E1,-2.729734406E-4,-1.151105971E-3,9.740353562E-4
3.568960037E1,-2.729734406E-4,-1.978680957E-4,-1.527894055E-4
3.573960037E1,1.235899981E-4,-7.929506246E-4,1.184599008E-3
3.578960037E1,-2.729734406E-4,4.604733549E-4,1.574573107E-4
3.583960037E1,-2.729734406E-4,-2.576606348E-3,-7.230181945E-4
3.588960037E1,-7.691886276E-5,-1.696031541E-4,2.664960339E-4
3.593960037E1,3.242869861E-4,-1.073328312E-4,1.207029796E-3
3.598960037E1,-9.217367042E-4,2.169420011E-3,1.347216312E-4
3.603960037E1,7.060735952E-4,-1.130382763E-3,1.558373915E-4
3.608960037E1,-5.107326433E-5,8.440688252E-4,7.034221198E-5
3.613960037E1,3.950467799E-4,-2.719477750E-3,7.100636140E-5
3.618960037E1,5.610813387E-4,-2.988082357E-3,-3.262370592E-4
3.623960037E1,-2.729734406E-4,9.565530345E-4,-3.262370592E-4
3.628960037E1,1.229187474E-4,-2.090842463E-5,7.390264655E-4
3.633960037E1,-3.934497945E-4,-3.256029449E-4,7.390264655E-4
3.638960037E1,3.797989339E-4,-1.255562529E-3,-3.262370592E-4
3.643960037E1,-1.056717709E-3,3.464757465E-4,5.982667790E-4
3.648960037E1,-2.729734406E-4,-1.644788543E-3,8.724721847E-4
3.653960037E1,-2.666446380E-4,-4.460792989E-4,-3.325660946E-4
3.658960037E1,1.174730714E-4,-3.289722372E-4,-7.166834548E-4
3.663960037E1,2.407159191E-4,-1.907740836E-3,6.217352347E-4
3.668960037E1,1.782923937E-5,-8.428834844E-4,4.482236691E-4
3.673960037E1,2.301833592E-4,1.578292809E-3,-3.262370592E-4
3.678960037E1,5.872617476E-5,-5.351947621E-4,3.722444526E-4
3.683960037E1,1.135716797E-3,-4.412210546E-3,2.063947031E-4
3.688960037E1,-6.697629578E-4,1.935652457E-3,-3.262370592E-4
3.693960037E1,6.553735584E-4,-3.368035657E-3,1.763729379E-4
3.698960037E1,5.372054875E-5,1.498370897E-3,7.390264655E-4
3.703960037E1,1.255053445E-3,9.724758565E-4,-2.563685412E-4
3.708960037E1,5.810894072E-5,-1.089610159E-4,7.082591765E-5
3.713960037E1,-2.729734406E-4,1.624790020E-4,-2.503109863E-4
3.718960037E1,-3.200587817E-4,-3.408906283E-3,3.428729251E-4
3.723960037E1,2.182752360E-4,-2.765898826E-3,-2.789139980E-4
3.728960037E1,-1.066560391E-3,-2.937091980E-3,-7.230304182E-4
3.733960037E1,6.564925425E-4,-3.564734943E-4,7.026284584E-4
3.738960037E1,-2.729734406E-4,1.478036866E-4,7.390264655E-4
3.743960037E1,-8.056052029E-4,-1.436933177E-3,-4.132728791E-4
3.748960037E1,-9.546051733E-4,2.664080355E-3,-6.112281699E-4
3.753960037E1,9.978847811E-4,3.882853314E-3,8.489803877E-4
3.758960037E1,1.639864524E-3,-4.460792989E-4,1.012288965E-3
3.763960037E1,-1.198146492E-5,8.628237993E-5,-3.259667428E-4
3.768960037E1,-5.338424817E-4,-4.460792989E-4,8.135114331E-5
3.773960037E1,-2.729734406E-4,-4.460792989E-4,1.135915634E-3
3.778960037E1,1.236679964E-4,-8.645041380E-4,-7.603957783E-5
3.783960037E1,-2.729734406E-4,-4.460792989E-4,-8.371149888E-4
3.788960037E1,-2.729734406E-4,-8.766793180E-4,5.004148697E-4
3.793960037E1,2.252936829E-4,-4.460792989E-4,1.720299479E-4
3.798960037E1,1.237331890E-4,-8.427859284E-4,-3.262370592E-4
3.803960037E1,-2.729734406E-4,-8.426608983E-4,7.034454029E-5
3.808960037E1,-2.729734406E-4,-1.296344330E-3,7.027422544E-5
3.813960037E1,-2.729734406E-4,-4.460792989E-4,-3.262370592E-4
3.818960037E1,-2.729734406E-4,-4.460792989E-4,1.393316779E-4
3.823960037E1,-2.729734406E-4,-9.096929571E-4,2.754128072E-4
3.828960037E1,2.049435861E-4,-4.460792989E-4,3.426856711E-4
3.833960037E1,-2.729734406E-4,-8.428255096E-4,1.250688219E-4
3.838960037E1,-2.729734406E-4,-4.460792989E-4,5.594410468E-4
3.843960037E1,-2.729734406E-4,-4.460792989E-4,3.421969013E-4
3.848960037E1,-2.729734406E-4,-4.460792989E-4,3.431814257E-4
3.853960037E1,-2.729734406E-4,-4.460792989E-4,-3.262370592E-4
3.858960037E1,-2.729734406E-4,-4.460792989E-4,5.838137004E-4
3.863960037E1,-2.729734406E-4,-1.114202430E-3,9.020569269E-5
3.868960037E1,-2.729734406E-4,-9.873106610E-4,-3.262370592E-4
3.873960037E1,-2.729734406E-4,-4.460792989E-4,7.790047675E-5
3.878960037E1,-2.729734406E-4,-4.460792989E-4,-3.262370592E-4
3.883960037E1,-2.729734406E-4,-7.216015365E-4,-3.262370592E-4
3.888960037E1,2.447818406E-4,-9.787110612E-4,2.063947031E-4
3.893960037E1,-2.729734406E-4,-4.460792989E-4,6.292402977E-4
3.898960037E1,1.497920603E-4,-9.787110612E-4,8.488927851E-4
3.903960037E1,2.586399205E-5,-8.162223967E-4,4.390603863E-5
3.908960037E1,-1.369412057E-4,-4.460792989E-4,6.798512186E-4
3.913960037E1,4.821799230E-4,-4.460792989E-4,7.872343995E-4
3.918960037E1,2.095783129E-4,-4.961593077E-4,-8.087888127E-4
3.923960037E1,5.029980093E-5,-7.918928750E-4,-6.495103007E-4
3.928960037E1,7.296418771E-4,-9.787110612E-4,7.050542627E-5
3.933960037E1,-2.729734406E-4,-1.177483471E-3,4.046895774E-4
3.938960037E1,1.870531123E-4,-4.460792989E-4,-2.629951341E-4
3.943960037E1,-9.640327189E-4,-1.137138461E-3,4.155049101E-4
3.948960037E1,-3.745425493E-4,-5.476484075E-4,6.536684232E-4
3.953960037E1,4.810099490E-4,-8.888868615E-5,4.277462722E-4
3.958960037E1,-2.332823351E-4,-1.431960380E-3,6.429300411E-4
3.963960037E1,1.234970987E-4,-3.499314189E-4,-3.262370592E-4
3.968960037E1,1.514314208E-4,-2.167420462E-5,2.063947031E-4
3.973960037E1,-6.533567794E-4,-4.460792989E-4,7.390264655E-4
3.978960037E1,-2.093920950E-3,-3.457034472E-3,1.255367300E-3
3.983960037E1,-5.848760717E-3,-7.819570601E-3,-8.380302461E-4
3.988960037E1,-1.205970533E-3,4.433467984E-5,2.025567228E-4
3.993960037E1,-4.053460434E-4,-1.114594750E-3,1.936662477E-3
3.998960037E1,7.922903169E-4,-4.931399599E-5,-6.271265447E-4
4.003960037E1,-1.991610043E-5,-4.460792989E-4,-3.106147982E-3
4.008960037E1,-4.282859154E-4,-1.752718934E-3,2.312730066E-5
4.013960037E1,-5.144337192E-4,-8.429286536E-4,3.266402986E-3
4.018960037E1,-2.131545916E-3,-2.641146537E-3,5.128104240E-4
4.023960037E1,-9.423722513E-4,-4.026535898E-4,-1.787365531E-3
4.028960037E1,-2.729734406E-4,-1.728216186E-3,1.494303695E-3
4.033960037E1,-7.243398577E-4,-2.142345533E-3,2.418186981E-3
4.038960037E1,3.140801564E-4,-1.321354765E-3,-4.109081347E-3
4.043960037E1,-5.279809702E-4,1.594284549E-5,-1.088499906E-3
4.048960037E1,-1.338236965E-3,-1.440898981E-3,4.735989030E-3
4.053960037E1,-9.415703826E-4,-1.908009406E-3,1.552338712E-3
4.058960037E1,-3.308814485E-4,-1.270129462E-3,-3.094864078E-3
4.063960037E1,-7.582705002E-4,-2.179802861E-3,1.343294978E-3
4.068960037E1,-4.975106567E-4,-2.844126429E-3,7.868227549E-4
4.073960037E1,-4.447973333E-4,-1.014302252E-3,-5.508122267E-4
4.078960037E1,-2.639894374E-3,-1.084127696E-3,7.374018896E-3
4.083960037E1,-2.451826818E-3,-3.021510318E-3,1.663917862E-2
4.088960037E1,7.681287825E-4,-1.114752609E-3,3.391074017E-3
4.093960037E1,-3.394938074E-3,-2.553068800E-3,4.809593782E-2
4.098960037E1,-7.328991778E-3,-6.948890164E-3,6.269925088E-2
4.103960037E1,-1.076165121E-3,-2.848649863E-3,2.898061834E-2
4.108960037E1,-7.949809078E-4,-3.868528409E-3,1.211066730E-2
4.113960037E1,-1.767709386E-3,-2.554943785E-3,2.422154509E-2
4.118960037E1,-3.655406181E-3,-3.581958823E-3,2.516218461E-2
4.123960037E1,-7.808213122E-4,-3.196115606E-3,5.680905655E-3
4.128960037E1,-1.861205325E-3,-9.123100899E-4,8.887704462E-3
4.133960037E1,-5.780251231E-4,-3.470604774E-3,1.744877547E-2
4.138960037E1,-2.823289949E-3,-1.724066678E-4,2.765533328E-2
4.143960037E1,1.665260294E-3,-5.175932311E-3,1.407789998E-2
4.148960037E1,4.720115103E-4,-1.888980391E-3,-4.184267949E-3
4.153960037E1,1.835096627E-4,-1.951340586E-3,1.738338033E-4
4.158960037E1,-6.035428960E-4,-1.848801156E-3,4.332053009E-3
4.163960037E1,-2.703687642E-4,-4.681199789E-5,-2.647642978E-4
4.168960037E1,7.922903169E-4,-1.031057909E-4,-2.440168057E-3
4.173960037E1,-2.196549904E-4,1.398711465E-4,7.151112659E-4
4.178960037E1,-2.729734406E-4,-8.404504042E-4,-5.231914110E-5
4.183960037E1,7.494660094E-4,-1.646991353E-3,-2.228291705E-3
4.188960037E1,-3.658388741E-4,-1.053304877E-3,8.005863056E-4
4.193960037E1,2.282862552E-4,-1.796265133E-5,2.305549569E-3
4.198960037E1,-2.729734406E-4,-4.981853999E-5,-1.190929906E-4
4.203960037E1,2.596583217E-4,-5.628373474E-4,-1.391500584E-3
4.208960037E1,3.958102316E-4,-7.258161204E-4,-6.059738807E-4
4.213960037E1,3.880946897E-4,-4.536566557E-4,-3.262370592E-4
4.218960037E1,3.958111629E-4,-7.140114903E-4,-3.262370592E-4
4.223960037E1,-2.729734406E-4,8.231867105E-5,2.106286120E-4
4.228960037E1,1.392350532E-4,-1.254792558E-3,1.547739608E-3
4.233960037E1,-2.729734406E-4,-8.427129360E-4,7.039657794E-5
4.238960037E1,5.472605117E-4,-1.689843368E-3,-3.262370592E-4
4.243960037E1,1.235986128E-4,-9.517332073E-4,-1.228463021E-3
4.248960037E1,1.231660135E-4,-4.993961193E-5,1.095707994E-4
4.253960037E1,-6.694283802E-4,-1.335680019E-3,1.804289990E-3
4.258960037E1,1.237564720E-4,-4.969185684E-4,5.124221207E-4
4.263960037E1,-2.729734406E-4,-9.279034566E-4,-3.262370592E-4
4.268960037E1,-2.729734406E-4,-8.428872097E-4,1.320253359E-4
4.273960037E1,1.233452931E-4,-7.188168820E-4,-1.280776924E-4
4.278960037E1,9.897518903E-4,6.952518597E-4,-6.007103948E-4
4.283960037E1,-3.333236091E-4,-1.404434443E-4,-3.262370592E-4
4.288960037E1,-3.589366097E-4,-1.482106745E-4,-2.086437773E-3
4.293960037E1,-2.729734406E-4,-1.791042741E-4,-1.387362950E-3
4.298960037E1,2.197875176E-3,-1.403641421E-3,-6.550676189E-4
4.303960037E1,-4.352093674E-4,-9.527276270E-4,9.396249079E-4
4.308960037E1,-6.167115644E-4,-2.647475339E-4,-7.229495095E-4
4.313960037E1,1.503336243E-4,-1.746241469E-4,-1.213246142E-3
4.318960037E1,-1.428703312E-3,9.824289009E-4,-5.439627450E-3
4.323960037E1,1.548466622E-3,-1.249499992E-2,-4.022193328E-2
4.328960037E1,-5.025693215E-3,-3.159230202E-2,-2.824898809E-2
4.333960037E1,1.195418066E-3,-3.635461442E-3,-2.591092605E-3
4.338960037E1,2.596583217E-4,-1.106424141E-3,-2.035163343E-3
4.343960037E1,-6.697019562E-4,-2.179878065E-3,2.481247764E-3
4.348960037E1,-7.082335651E-4,-2.634243108E-3,3.627135302E-4
4.353960037E1,-1.442304812E-3,-6.564900279E-3,4.198709503E-4
4.358960037E1,-7.013834547E-4,-3.181623993E-3,5.190599477E-4
4.363960037E1,3.057392314E-5,-1.146448543E-3,-7.844063221E-4
4.368960037E1,-1.796458382E-4,-2.397480886E-3,6.961275358E-4
4.373960037E1,-2.729734406E-4,-4.460792989E-4,-1.353468630E-3
4.378960037E1,6.561146583E-4,5.752779543E-6,-2.962859580E-4
4.383960037E1,-2.729734406E-4,-7.731519872E-4,2.542480826E-3
4.388960037E1,-2.069179900E-4,-9.824921144E-4,2.101757564E-4
4.393960037E1,5.658855662E-5,-4.460792989E-4,-1.391500584E-3
4.398960037E1,-2.166465856E-4,6.807036698E-6,7.061186479E-4
4.403960037E1,4.408345558E-5,-4.902342334E-5,7.049322594E-4
4.408960037E1,3.924379125E-4,-5.354940658E-4,1.603446435E-4
4.413960037E1,7.031888235E-4,-1.080923248E-3,4.319318687E-4
4.418960037E1,-5.677221343E-4,-1.013059635E-3,2.063947031E-4
4.423960037E1,-3.747981973E-4,-4.940922372E-5,7.043278310E-5
4.428960037E1,-3.630470019E-4,-3.330130130E-4,-3.262370592E-4
4.433960037E1,-2.729734406E-4,-1.625346486E-4,4.554819316E-4
4.438960037E1,-2.729734406E-4,-2.179027535E-3,2.063947031E-4
4.443960037E1,1.252265647E-4,-5.733973812E-4,-7.244369481E-4
4.448960037E1,-2.729734406E-4,-5.283812061E-5,-1.885982929E-4
4.453960037E1,-2.729734406E-4,-2.964176238E-4,7.390264655E-4
4.458960037E1,-1.249010675E-4,-5.941516720E-4,1.945461845E-4
4.463960037E1,3.714114428E-4,-1.511342824E-3,-3.262370592E-4
4.468960037E1,7.922903169E-4,-2.179981908E-3,7.390264655E-4
4.473960037E1,7.922903169E-4,-2.144428436E-3,3.068485530E-4
4.478960037E1,2.242163755E-4,-1.115457271E-3,-3.262370592E-4
4.483960037E1,-2.729734406E-4,-6.700367667E-4,9.599526529E-4
4.488960037E1,-2.729734406E-4,-1.327408478E-3,1.223458326E-3
4.493960037E1,5.792137235E-4,-8.431263268E-4,-1.131604658E-4
4.498960037E1,-2.729734406E-4,-1.037182636E-3,-3.262370592E-4
4.503960037E1,-2.729734406E-4,-6.480473094E-4,6.990658585E-5
4.508960037E1,-2.729734406E-4,-4.460792989E-4,7.390264655E-4
4.513960037E1,-2.729734406E-4,-9.254391771E-4,-1.369611127E-4
4.518960037E1,7.922903169E-4,-8.960819105E-4,7.058936171E-5
4.523960037E1,3.018681891E-4,-4.460792989E-4,5.607664352E-4
4.528960037E1,-2.729734406E-4,-4.460792989E-4,1.124533592E-4
4.533960037E1,-2.729734406E-4,-4.460792989E-4,-3.262370592E-4
4.538960037E1,-2.729734406E-4,-4.460792989E-4,1.563753467E-4
4.543960037E1,1.227436587E-4,-4.460792989E-4,-1.680373680E-5
4.548960037E1,1.233322546E-4,-4.460792989E-4,-7.112219464E-5
4.553960037E1,-2.729734406E-4,-9.730269667E-4,2.120786812E-4
4.558960037E1,3.895217087E-4,-4.916382022E-5,4.734467948E-4
4.563960037E1,-1.419463661E-4,-1.375417924E-3,-3.262370592E-4
4.568960037E1,-2.729734406E-4,-7.232001517E-4,-4.911620636E-5
4.573960037E1,6.728444714E-4,-9.787110612E-4,3.258404904E-4
4.578960037E1,3.956360742E-4,-4.460792989E-4,-3.427768825E-4
4.583960037E1,-1.646827441E-4,-4.460792989E-4,2.339595230E-4
4.588960037E1,-2.729734406E-4,-4.460792989E-4,1.107430668E-3
4.593960037E1,-2.729734406E-4,-9.381314740E-4,2.063947031E-4
4.598960037E1,-2.729734406E-4,-4.460792989E-4,-1.377903391E-5
4.603960037E1,-2.729734406E-4,-4.460792989E-4,7.390264655E-4
4.608960037E1,-2.729734406E-4,-1.225387678E-4,1.878931653E-5
4.613960037E1,-2.729734406E-4,-3.728999291E-4,-2.634918783E-4
4.618960037E1,-2.729734406E-4,-7.812597323E-4,1.867040759E-3
4.623960037E1,1.850158442E-4,-9.654304013E-4,2.677565790E-4
4.628960037E1,-2.729734406E-4,-7.928805426E-4,-3.262370592E-4
4.633960037E1,-2.729734406E-4,-9.416365065E-4,2.063947031E-4
4.638960037E1,-2.729734406E-4,-4.460792989E-4,3.801677958E-4
4.643960037E1,1.615202054E-4,-4.460792989E-4,-3.262370592E-4
4.648960037E1,9.731668979E-5,-8.425510023E-4,4.405248328E-4
4.653960037E1,-2.467210870E-4,-1.375287538E-3,6.292234175E-4
4.658960037E1,-2.729734406E-4,-4.460792989E-4,-3.262370592E-4
4.663960037E1,-9.712041356E-4,-4.426609259E-3,8.405034896E-5
4.668960037E1,7.922903169E-4,6.217486225E-4,7.052754518E-5
4.673960037E1,-2.703110222E-4,-1.639174297E-3,-3.262370592E-4
4.678960037E1,1.325746998E-4,-3.037694842E-4,-3.262370592E-4
4.683960037E1,-2.729734406E-4,-1.763043576E-3,2.153709065E-4
4.688960037E1,1.236707903E-4,-4.460792989E-4,7.390264655E-4
4.693960037E1,-2.729734406E-4,-1.114672865E-3,1.095233834E-3
4.698960037E1,-2.729734406E-4,-2.303006826E-3,4.990009475E-4
4.703960037E1,3.959999885E-4,5.319411866E-5,7.390264655E-4
4.708960037E1,-4.602223635E-5,-9.309444577E-4,2.979672281E-4
4.713960037E1,-9.280163795E-5,-1.639959635E-3,-1.744844485E-5
4.718960037E1,-5.685817450E-5,-1.928260783E-3,-5.423522089E-4
4.723960037E1,-6.696777418E-4,-2.893521218E-3,1.804289990E-3
4.728960037E1,1.238933764E-4,4.019110929E-4,4.800562747E-4
4.733960037E1,-6.691380404E-4,-3.497592174E-3,-1.228930196E-4
4.738960037E1,2.031400800E-4,8.226656355E-4,1.215139870E-3
4.743960037E1,3.393259831E-4,1.390819438E-3,-8.896330837E-5
4.748960037E1,-9.197439067E-5,-8.780483622E-4,-1.391500584E-3
4.753960037E1,3.504371271E-4,9.822985157E-4,2.971732174E-4
4.758960037E1,-1.040571369E-4,-1.732024597E-3,1.135459053E-3
4.763960037E1,-2.729734406E-4,-5.106985336E-4,-3.262370592E-4
4.768960037E1,6.347261369E-4,1.531672664E-3,-7.225421723E-4
4.773960037E1,-6.696530618E-4,-1.886936370E-3,1.386524411E-3
4.778960037E1,1.240617130E-4,5.989521742E-4,3.629459534E-4
4.783960037E1,-1.108320430E-5,-1.656834269E-3,-3.262370592E-4
4.788960037E1,-6.672786549E-4,-2.562292386E-3,6.047896459E-4
4.793960037E1,-1.522046514E-4,-1.179207931E-3,7.390264655E-4
4.798960037E1,1.239916310E-4,-1.948154531E-4,-2.031758195E-4
4.803960037E1,4.082967062E-4,-1.313422574E-3,7.039599586E-5
4.808960037E1,-1.090347767E-3,-3.232526826E-3,-3.262370592E-4
4.813960037E1,1.235371456E-4,-8.175186813E-4,-2.011476550E-3
4.818960037E1,-2.032618970E-3,-6.048901938E-3,-3.003011225E-4
4.823960037E1,-1.235265750E-3,-3.096390050E-3,-2.199514303E-3
4.828960037E1,-1.327932812E-3,-4.027899355E-3,6.027284544E-4
4.833960037E1,1.014880836E-4,-2.491709776E-3,-7.229060866E-4
4.838960037E1,1.239003614E-4,-3.652270650E-3,-8.942650631E-3
4.843960037E1,-2.061139792E-3,-8.359692991E-3,-2.615544014E-2
4.848960037E1,-4.695500247E-4,1.490641385E-3,-6.482060999E-4
4.853960037E1,-6.179604679E-4,-2.587442286E-3,1.084013376E-3
4.858960037E1,1.137673855E-3,4.141447134E-4,1.719561522E-3
4.863960037E1,-3.578846809E-4,-1.497576945E-3,2.717401367E-5
4.868960037E1,3.133858554E-4,1.721763983E-3,-1.391500584E-3
4.873960037E1,1.952673192E-3,7.391243242E-3,-1.420546207E-3
4.878960037E1,4.247801844E-4,6.402805448E-4,2.704431769E-3
4.883960037E1,1.099439571E-3,6.760349497E-4,5.606348277E-4
4.888960037E1,-7.882439531E-4,-8.107738104E-4,-3.368613776E-3
4.893960037E1,-2.729734406E-4,-1.358232461E-3,2.896095393E-4
4.898960037E1,6.563803181E-4,6.006259937E-4,2.739829943E-3
4.903960037E1,1.235161908E-4,4.767791834E-4,2.069828333E-4
4.908960037E1,-1.314741094E-4,-9.731645696E-4,-8.533223299E-4
4.913960037E1,1.188835129E-3,1.967276447E-3,4.838959430E-4
4.918960037E1,1.233150251E-4,-1.957094297E-3,-3.262370592E-4
4.923960037E1,-1.125063747E-3,-2.641594969E-3,-7.227660390E-4
4.928960037E1,1.237464603E-4,-4.460792989E-4,4.010708071E-4
4.933960037E1,1.644699369E-4,-4.460792989E-4,1.804289990E-3
4.938960037E1,-1.023283694E-3,-3.093693405E-3,2.119243378E-3
4.943960037E1,-2.099880949E-4,-2.001325600E-3,-1.401451067E-3
4.948960037E1,-6.695580669E-4,-2.704942133E-3,-1.871255809E-3
4.953960037E1,1.236961689E-4,-8.802007651E-4,3.236308694E-4
4.958960037E1,-4.729831126E-4,-1.431104029E-3,1.135814469E-3
4.963960037E1,2.716435120E-6,-2.087424509E-4,2.667590161E-4
4.968960037E1,8.243173361E-4,9.877849370E-4,-3.262370592E-4
4.973960037E1,4.239068367E-4,-2.138828859E-4,-7.228273898E-4
4.978960037E1,5.684066564E-4,2.474618144E-3,1.215297962E-4
4.983960037E1,2.227793448E-4,7.434543222E-4,1.308537321E-3
4.988960037E1,9.536674479E-4,3.580372781E-3,-9.578637546E-4
4.993960037E1,-2.729734406E-4,-2.847802825E-4,2.007849980E-5
4.998960037E1,-2.729734406E-4,-1.089845784E-3,7.030437700E-5
5.003960037E1,-2.729734406E-4,-9.918506257E-4,-1.242236351E-3
5.008960037E1,-2.729734406E-4,-2.714389935E-3,5.879368400E-4
5.013960037E1,6.548371166E-4,2.199899405E-3,1.272883033E-3
5.018960037E1,1.247911714E-4,-4.450015258E-4,-9.937362047E-4
5.023960037E1,-2.631121315E-4,-4.460792989E-4,-8.490075124E-4
5.028960037E1,5.104658194E-4,1.422481611E-3,1.020850730E-3
5.033960037E1,-2.939337865E-4,-3.787755035E-3,1.762369298E-3
5.038960037E1,4.121800885E-5,-1.572687412E-3,-6.194569869E-4
5.043960037E1,2.261237241E-4,-1.648170874E-3,-8.253339911E-4
5.048960037E1,6.756349467E-5,-2.291677054E-3,3.428818891E-4
5.053960037E1,-1.832689159E-4,-2.304765396E-3,6.928103394E-4
5.058960037E1,1.241094433E-4,6.655063480E-4,7.084582467E-5
5.063960037E1,-2.493315842E-4,-2.631077776E-3,-3.262370592E-4
5.068960037E1,-2.729734406E-4,-1.828395063E-3,-7.221003762E-4
5.073960037E1,-8.075810038E-4,-3.178409068E-3,6.718309014E-4
5.078960037E1,-6.002739538E-4,-1.880076947E-3,7.390264655E-4
5.083960037E1,3.397804685E-4,5.427189171E-4,2.063947031E-4
5.088960037E1,7.575124037E-4,2.690536901E-3,-1.074650674E-3
5.093960037E1,3.513933625E-4,-1.386387506E-3,-2.792014275E-4
5.098960037E1,1.096863765E-3,2.175698057E-3,3.426017938E-4
5.103960037E1,-3.442559391E-4,-3.284125123E-3,1.271658228E-3
5.108960037E1,-2.090775408E-3,-4.311020486E-3,6.556393346E-4
5.113960037E1,8.478283416E-4,1.419006847E-3,-3.262370592E-4
5.118960037E1,9.663229575E-4,8.514630608E-4,7.042742800E-5
5.123960037E1,1.328026410E-4,3.565142397E-4,2.063947031E-4
5.128960037E1,5.224139895E-4,3.493083641E-4,-5.636073183E-5
5.133960037E1,-2.729734406E-4,-1.873967703E-4,-3.262370592E-4
5.138960037E1,-6.692344323E-4,-2.700125799E-3,-3.262370592E-4
5.143960037E1,-6.694747135E-4,-3.644128563E-3,1.135527622E-3
5.148960037E1,9.426224278E-4,1.095888671E-3,3.423970775E-4
5.153960037E1,-1.572700217E-3,-5.755613558E-3,7.012917195E-5
5.158960037E1,-7.076011971E-4,-9.959123563E-4,1.083908137E-4
5.163960037E1,2.000830136E-4,-3.641201183E-4,7.390264655E-4
5.168960037E1,7.922903169E-4,1.162799541E-3,2.932500793E-4
5.173960037E1,7.212432101E-4,1.320180250E-3,-9.949348168E-4
5.178960037E1,-2.358821221E-4,-7.678073598E-4,-7.839186583E-5
5.183960037E1,-4.713204689E-4,-2.774953377E-3,1.135640312E-3
5.188960037E1,-1.338236965E-3,-3.172193421E-3,2.693503047E-4
5.193960037E1,5.841525272E-4,-4.022300709E-4,-3.262370592E-4
5.198960037E1,2.079242840E-4,-7.377441507E-4,-3.262370592E-4
5.203960037E1,1.750295050E-4,-1.408054493E-3,-1.053350279E-4
5.208960037E1,-2.729734406E-4,-1.114639570E-3,2.461005934E-4
5.213960037E1,1.239497215E-4,-1.385836629E-3,-9.445345495E-5
5.218960037E1,2.313852310E-4,3.413432278E-4,1.243385021E-3
5.223960037E1,-2.861768007E-5,-2.239923691E-3,7.390264655E-4
5.228960037E1,7.922903169E-4,1.532316208E-3,-1.741052838E-4
5.233960037E1,-2.729734406E-4,-2.131047193E-3,-3.262370592E-4
5.238960037E1,-2.729734406E-4,-2.310371026E-3,-3.262370592E-4
5.243960037E1,-2.729734406E-4,-1.649336424E-3,3.374566440E-4
5.248960037E1,-2.662651241E-4,-1.983599272E-3,3.289838787E-4
5.253960037E1,3.954635467E-4,3.300520126E-3,-4.778371658E-5
5.258960037E1,-6.515020505E-4,-2.819004701E-3,7.210531621E-4
5.263960037E1,1.585454447E-3,4.644152243E-3,-1.012924942E-3
5.268960037E1,-5.623730831E-4,-2.045666566E-3,-4.327459028E-4
5.273960037E1,-1.176272053E-4,3.333285451E-3,6.995419972E-5
5.278960037E1,1.045443816E-3,3.854272887E-3,-3.690082813E-4
5.283960037E1,4.353672266E-4,-8.960720152E-6,-6.804073928E-4
5.288960037E1,-1.899776980E-4,-1.772175194E-3,6.560310139E-4
5.293960037E1,-2.550713252E-4,-2.108749934E-3,7.390264655E-4
5.298960037E1,1.890799031E-4,2.005537972E-4,2.769731800E-4
5.303960037E1,4.544160329E-4,6.120270118E-4,7.390264655E-4
5.308960037E1,-2.729734406E-4,-1.831481699E-3,2.063947031E-4
5.313960037E1,7.537519559E-5,2.990418579E-4,-3.262370592E-4
5.318960037E1,1.276679570E-3,2.208421938E-3,-7.710413774E-4
5.323960037E1,4.317811690E-4,1.632515341E-3,-3.262370592E-4
5.328960037E1,-2.138108481E-3,-7.292204536E-3,-5.576941185E-4
5.333960037E1,6.969012320E-4,3.839047626E-3,1.431784825E-3
5.338960037E1,8.799834177E-4,-3.519130405E-4,-3.898058785E-4
5.343960037E1,-3.722175024E-4,-4.125075415E-3,-3.262370592E-4
5.348960037E1,1.237380784E-4,2.965971362E-4,1.937079942E-4
5.353960037E1,-1.460309140E-3,-4.678905476E-3,6.920762826E-5
5.358960037E1,-2.666050568E-3,-7.494604215E-3,1.136617386E-3
5.363960037E1,-5.344613455E-4,-3.652482061E-3,1.542802085E-3
5.368960037E1,-7.948107086E-4,-3.892614739E-3,7.174375933E-4
5.373960037E1,-2.729734406E-4,-3.200301435E-3,-3.262370592E-4
5.378960037E1,-8.280300535E-4,-4.321062006E-3,1.150788739E-4
5.383960037E1,-5.107878242E-4,-7.284036838E-4,1.135357190E-3
5.388960037E1,-1.023996156E-4,-9.440947324E-4,5.684526404E-4
5.393960037E1,7.922903169E-4,-3.947177902E-6,-3.262370592E-4
5.398960037E1,-2.729734406E-4,-2.213455969E-3,7.390264655E-4
5.403960037E1,-2.142186277E-4,-1.179497922E-3,-1.119017834E-4
5.408960037E1,4.807927180E-4,4.703314044E-4,-3.262370592E-4
5.413960037E1,-4.752315581E-4,-1.206505112E-4,-3.262370592E-4
5.418960037E1,-4.643960856E-4,-2.032495104E-3,-3.262370592E-4
5.423960037E1,3.962907940E-4,-1.007391140E-3,-3.262370592E-4
5.428960037E1,-4.511736333E-4,-3.396870103E-3,2.887174487E-4
5.433960037E1,-1.870095730E-6,-1.677470515E-3,7.390264655E-4
5.438960037E1,-2.729734406E-4,2.062930726E-4,1.138807274E-4
5.443960037E1,-2.729734406E-4,-2.407873748E-3,-8.268438978E-4
5.448960037E1,7.922903169E-4,7.425723597E-4,-3.262370592E-4
5.453960037E1,-1.175848302E-4,-1.752503798E-3,1.870881533E-4
5.458960037E1,1.189181930E-3,3.360572737E-3,-7.392710540E-5
5.463960037E1,-6.519590970E-4,-3.406271804E-3,-1.815435244E-4
5.468960037E1,-2.729734406E-4,-4.361257888E-4,-6.256508641E-5
5.473960037E1,1.275080722E-4,-7.059596246E-4,7.346060593E-4
5.478960037E1,-5.495371297E-4,7.550278679E-5,1.020313008E-3
5.483960037E1,3.747176379E-6,-3.596476279E-3,3.116534790E-4
5.488960037E1,4.250991624E-4,1.566372812E-4,-1.104903989E-3
5.493960037E1,-1.228335779E-3,-5.581795704E-3,2.332943259E-4
5.498960037E1,-7.109772414E-4,-1.801894512E-3,8.080071420E-4
5.503960037E1,-3.124079667E-4,7.969038561E-4,6.425559986E-4
5.508960037E1,-1.695735380E-3,-5.833561532E-3,3.420541761E-4
5.513960037E1,-1.387720462E-3,-3.988254350E-3,1.234916039E-3
5.518960037E1,-1.685519703E-3,-8.004645817E-3,1.160585321E-3
5.523960037E1,-6.938653532E-4,-3.368671983E-3,-7.348259678E-4
5.528960037E1,1.398843015E-3,1.187120331E-3,1.532115857E-3
5.533959951E1,-2.106640022E-4,-7.182722911E-4,-2.639273880E-4
5.538959951E1,-5.228689406E-4,-7.256144891E-4,-1.464919304E-3
5.543959951E1,-8.909439202E-4,-4.639162682E-3,3.808043548E-4
5.548959951E1,-1.968012657E-3,-8.073719218E-3,-1.383789233E-3
5.553959951E1,-1.611324586E-2,-6.314945966E-2,1.765238354E-3
5.558959951E1,-2.875144128E-4,-2.308509313E-3,2.997339470E-4
5.563959951E1,-1.299500279E-2,-5.567720532E-2,1.532170456E-3
5.568959951E1,-1.347741671E-2,-4.959417135E-2,1.135965809E-3
5.573959951E1,-5.540405400E-4,-3.052087268E-3,2.063947031E-4
5.578959951E1,-1.223993674E-2,-4.424542934E-2,4.625582951E-4
5.583959951E1,-1.112101600E-3,-6.826645229E-3,6.073698169E-4
5.588959951E1,1.548419893E-2,5.774125457E-2,-2.324374393E-3
5.593959951E1,-3.136468120E-3,-1.121703349E-2,9.909952059E-4
5.598959951E1,-1.005869359E-3,-3.464739770E-3,5.060879048E-4
5.603959951E1,7.814329583E-4,1.757732593E-3,-8.780917851E-4
5.608959951E1,-7.176369429E-3,-2.538090572E-2,3.059939016E-3
5.613959951E1,3.082595300E-3,9.224156849E-3,-8.911107434E-4
5.618959951E1,-3.650135361E-3,-1.634982973E-2,2.823505201E-4
5.623959951E1,3.636861918E-3,1.172729023E-2,3.088096622E-3
5.628959951E1,3.739231499E-3,1.043140143E-2,-3.964751959E-4
5.633959951E1,7.471385412E-3,3.090189397E-2,-4.874805454E-3
5.638959951E1,5.324807018E-3,1.971519738E-2,3.762158449E-4
5.643959951E1,5.396553315E-3,2.076996118E-2,-4.665545421E-4
5.648959951E1,8.419632912E-3,3.027822450E-2,-3.840403631E-3
5.653959951E1,-2.071887255E-3,-6.211219355E-3,3.109766985E-4
5.658959951E1,2.502196282E-2,9.565242380E-2,-5.496480502E-3
5.663959951E1,-1.400195993E-3,-9.659681469E-3,-1.041735173E-3
5.668959951E1,5.143241491E-3,1.963736117E-2,-1.684911898E-3
5.673959951E1,-9.835977107E-3,-3.794137388E-2,3.695384134E-3
5.678959951E1,7.697266992E-4,1.395679545E-3,1.438566251E-4
5.683959951E1,-7.500203326E-3,-2.967053279E-2,1.386466087E-3
5.688959951E1,-2.869945951E-3,-1.071095653E-2,1.804289990E-3
5.693959951E1,-7.249065675E-5,1.024723519E-3,1.692114049E-3
5.698959951E1,3.060681745E-3,1.142768934E-2,-3.262370592E-4
5.703959951E1,6.835998502E-3,2.521443367E-2,-1.539914054E-3
5.708959951E1,6.218727212E-3,2.175582573E-2,-1.503579668E-3
5.713959951E1,1.451499760E-3,4.232159350E-3,3.422096488E-4
5.718959951E1,-9.565846063E-3,-4.224330187E-2,3.198342398E-3
5.723959951E1,-4.175091162E-3,-1.627802104E-2,3.616701812E-3
5.728959951E1,-2.730967291E-2,-1.084802151E-1,8.858120069E-3
5.733959951E1,-9.482200257E-3,-4.047388583E-2,6.154863164E-3
5.738959951E1,-4.743998870E-3,-1.961386949E-2,3.569684923E-3
5.743959951E1,8.815715089E-3,3.590867668E-2,-2.184065059E-3
5.748959951E1,-8.667794056E-3,-3.206078708E-2,2.656686585E-3
5.753959951E1,2.122339047E-2,8.374309540E-2,8.922221605E-4
5.758959951E1,-1.080416888E-2,-4.183959216E-2,-2.602503635E-3
5.763959951E1,9.862381965E-3,3.950710595E-2,-4.744570702E-3
5.768959951E1,4.493413493E-3,2.109562233E-2,-1.883273129E-3
5.773959951E1,2.080746554E-2,7.256068289E-2,-6.758335978E-3
5.778959951E1,4.107151646E-3,1.707977802E-2,-1.691994071E-2
5.783959951E1,1.371535473E-3,4.298247863E-3,1.804289990E-3
5.788959951E1,-4.395293072E-4,-4.898087122E-3,2.887004055E-3
5.793959951E1,-4.041323438E-3,-1.989883557E-2,-9.068957297E-4
5.798959951E1,3.352774307E-3,1.584304869E-2,8.934375364E-5
5.803959951E1,-2.893207129E-4,2.070387825E-3,1.228015637E-3
5.808959951E1,-2.371504903E-3,-1.164914016E-2,2.215555403E-3
5.813959951E1,-4.898071289E-3,-2.163223922E-2,-8.569484344E-4
5.818959951E1,7.130894810E-4,-1.100402325E-3,-1.250842935E-3
5.823959951E1,1.582528348E-3,5.441932008E-3,-1.944404910E-3
5.828959951E1,-2.772280481E-3,-6.178131793E-3,1.906886464E-4
5.833959951E1,8.703721687E-4,2.054938581E-3,2.135481220E-3
5.838959951E1,7.233709097E-3,2.721885219E-2,-1.341700670E-3
5.843959951E1,3.663995070E-3,1.463338081E-2,-1.623058808E-3
5.848959951E1,4.497112706E-3,2.060551196E-2,-3.029216547E-3
5.853959951E1,8.376911283E-4,3.945173696E-3,-1.385496347E-3
5.858959951E1,3.109404352E-4,1.497246791E-3,7.390264655E-4
5.863959951E1,3.333729692E-4,-6.954345154E-4,7.390264655E-4
5.868959951E1,7.186275907E-4,1.683106646E-3,5.401697708E-4
5.873959951E1,3.210944124E-4,-1.934366883E-3,-3.262370592E-4
5.878959951E1,-6.216159090E-5,-3.554151626E-3,-5.370486761E-4
5.883959951E1,3.095054999E-4,1.820895355E-3,-5.120002897E-4
5.888959951E1,-8.915700018E-4,-4.951354582E-3,2.923593274E-4
5.893959951E1,4.436499439E-4,1.080986578E-3,-1.933803665E-3
5.898959951E1,-6.692237221E-4,-6.377095822E-3,-1.824667561E-3
5.903959951E1,-2.729734406E-4,-2.351683099E-3,-2.582054585E-3
5.908959951E1,-1.268696040E-3,-7.731559221E-3,-8.180002915E-4
5.913959951E1,-2.589106094E-3,-1.400638837E-2,-5.072943168E-4
5.918959951E1,-2.314238809E-3,-1.067741029E-2,3.112335224E-3
5.923959951E1,-5.303925835E-3,-2.761817351E-2,6.258355570E-4
5.928959951E1,1.350411680E-3,5.087248050E-3,1.203359221E-3
5.933959951E1,-1.668575220E-2,-7.023380697E-2,-1.237971149E-2
5.938959951E1,2.098504687E-3,5.868894514E-4,-8.871993981E-3
5.943959951E1,-2.437444218E-2,-9.682512283E-2,-4.668693524E-3
5.948959951E1,9.133729152E-3,2.743414789E-2,-5.086383317E-3
5.953959951E1,-1.435625926E-2,-5.664704740E-2,6.903693429E-4
5.958959951E1,-7.311555557E-3,-2.828945592E-2,1.108882367E-3
5.963959951E1,-1.176232286E-2,-4.278503358E-2,4.152824171E-3
5.968959951E1,-9.025685489E-3,-3.241926804E-2,1.487636007E-3
5.973959951E1,3.896635957E-3,1.701341197E-2,-4.395162687E-4
5.978959951E1,7.175117265E-3,2.324672788E-2,-3.623219673E-4
5.983959951E1,1.116272621E-2,3.751429915E-2,2.728984691E-3
5.988959951E1,-6.959092803E-3,-2.076122910E-2,4.472309723E-3
5.993959951E1,2.712024190E-2,1.006700173E-1,-2.228743397E-3
5.998959951E1,-7.525077090E-3,-2.848073095E-2,3.866570070E-3
6.003959951E1,1.702392474E-2,6.599922478E-2,-1.471212017E-3
6.008959951E1,-6.222985685E-4,1.054023392E-3,2.267701551E-3
6.013959951E1,7.010622881E-3,2.322842553E-2,-3.953556996E-3
6.018959951E1,4.966906272E-4,3.380834125E-3,-1.482616295E-3
6.023959951E1,3.816243261E-3,9.056567214E-3,-4.235393833E-3
6.028959951E1,-8.473534137E-3,-3.010001779E-2,2.097500023E-3
6.033959951E1,3.881090553E-3,1.695378870E-2,4.678769619E-4
6.038959951E1,-5.256611854E-3,-2.050776780E-2,2.075513359E-3
6.043959951E1,-1.265610568E-3,-7.982253097E-3,-4.498580238E-4
6.048959951E1,-5.519627593E-3,-1.885438338E-2,-1.405541669E-3
6.053959951E1,6.934916601E-4,-6.768079475E-4,-1.554790302E-3
6.058959951E1,-8.531818166E-3,-2.904537693E-2,1.699163113E-5
6.063959951E1,-1.513624564E-3,-6.153754890E-3,-4.866076633E-4
6.068959951E1,-1.103656646E-2,-4.441798851E-2,7.360135787E-4
6.073959951E1,-1.751716249E-2,-6.771548092E-2,2.150406828E-3
6.078959951E1,7.046358660E-3,2.420823276E-2,8.171774680E-4
6.083959951E1,-5.395608954E-3,-2.226406708E-2,5.646535428E-4
6.088959951E1,3.162305802E-4,-8.676490979E-4,-9.069613880E-4
6.093959951E1,-6.663503125E-3,-2.444646508E-2,2.479106188E-3
6.098959951E1,1.962043159E-2,6.951050460E-2,-2.790343016E-3
6.103959951E1,1.016530022E-2,3.625297546E-2,4.795907298E-4
6.108959951E1,1.424834784E-2,4.724258929E-2,4.902204033E-3
6.113959951E1,-1.016336214E-2,-3.522201627E-2,3.906952683E-3
6.118959951E1,4.459107760E-3,1.419095229E-2,-6.268470315E-4
6.123959951E1,-2.907536924E-3,-1.119760331E-2,9.183536749E-4
6.128959951E1,8.302131668E-3,3.147184104E-2,-1.516428310E-4
6.133959951E1,4.438105039E-3,1.589969173E-2,-1.847353182E-3
6.138959951E1,1.198664680E-2,4.590433836E-2,-2.493036445E-3
6.143959951E1,3.629624378E-3,1.139051281E-2,8.859357331E-5
6.148959951E1,6.378768478E-3,2.782547846E-2,1.122653717E-3
6.153959951E1,1.358628273E-2,5.045673996E-2,-4.966347478E-3
6.158959951E1,4.348848015E-4,-1.012414927E-3,4.886278184E-4
6.163959951E1,-2.607975155E-3,-6.389438175E-3,1.640436938E-3
6.168959951E1,-1.915656962E-3,-9.151931852E-3,2.597391605E-3
6.173959951E1,3.828021232E-3,1.480225753E-2,5.403128453E-4
6.178959951E1,-1.653404906E-4,-2.482146956E-4,-1.895899768E-3
6.183959951E1,1.516576740E-3,8.090774529E-3,8.079237887E-4
6.188959951E1,3.125485964E-4,-2.714978298E-3,1.556271221E-3
6.193959951E1,-2.305777743E-4,-1.194179989E-3,1.682467526E-3
6.198959951E1,-2.268090378E-3,-8.794294670E-3,1.571950852E-3
6.203959951E1,-8.451213129E-3,-3.532182798E-2,5.135756917E-3
6.208959951E1,-2.279979177E-2,-8.477595448E-2,7.913969457E-3
6.213959951E1,-1.671177335E-2,-6.473720074E-2,3.664904740E-3
6.218959951E1,-1.392277889E-2,-5.314469337E-2,2.534370171E-3
6.223959951E1,-1.123133861E-2,-4.193209857E-2,4.679536447E-3
6.228959951E1,1.016643271E-2,3.833753243E-2,-1.555781928E-3
6.233959951E1,1.491248049E-2,5.429045111E-2,-5.484286230E-4
6.238959951E1,1.680031046E-2,5.847003311E-2,-6.484087789E-4
6.243959951E1,-1.404483803E-3,-6.223878823E-3,9.903111495E-4
6.248959951E1,-3.587238025E-4,-2.205095720E-3,1.531891408E-3
6.253959951E1,2.068053000E-3,7.358349860E-3,3.431937657E-4
6.258959951E1,5.445736460E-4,1.040823758E-3,2.063947031E-4
6.263959951E1,-7.963352837E-4,-3.999822773E-3,8.609861252E-4
6.268959951E1,4.636850208E-3,1.387408655E-2,-1.120490837E-3
6.273959951E1,-7.282216102E-3,-2.779024094E-2,8.822869859E-4
6.278959951E1,-1.252811402E-3,-3.802399151E-3,3.832121147E-4
6.283959951E1,-4.702447914E-4,-1.131570898E-3,1.635977998E-3
6.288959951E1,9.261949454E-4,9.306157008E-4,4.284337629E-4
6.293959951E1,1.800589031E-3,3.529395908E-3,-4.333740799E-4
6.298959951E1,-6.904760376E-4,-3.294372465E-3,-4.289593780E-4
6.303959951E1,3.614316927E-3,1.265444886E-2,-7.229374023E-4
6.308959951E1,4.312206525E-3,1.850940660E-2,-1.391500584E-3
6.313959951E1,1.173619181E-2,4.592635483E-2,-5.980029237E-4
6.318959951E1,1.084794756E-2,4.256268218E-2,-4.198941169E-4
6.323959951E1,6.174977869E-3,2.422336861E-2,-4.534632899E-4
6.328959951E1,4.454693757E-3,1.303150691E-2,-3.705846146E-3
6.333959951E1,3.274949500E-3,1.929115131E-2,-5.166872870E-4
6.338959951E1,1.426068484E-3,7.472942583E-3,-4.873130238E-4
6.343959951E1,1.983458176E-3,8.856087923E-3,-2.035066718E-4
6.348959951E1,7.452196442E-4,4.125719890E-3,-5.383972311E-4
6.353959951E1,-1.368445344E-3,7.230799645E-3,-6.583282957E-4
6.358959951E1,-4.927091766E-3,1.525510009E-2,1.103267656E-3
6.363959951E1,-9.084159974E-4,8.581709117E-4,7.390264655E-4
6.368959951E1,-2.941747662E-4,2.225372009E-4,9.161152411E-5
6.373959951E1,1.237364486E-4,-6.967275403E-4,-3.262370592E-4
6.378959951E1,-2.729734406E-4,-1.104958123E-3,-3.262370592E-4
6.383959951E1,1.255655661E-4,-5.801720545E-4,-3.262370592E-4
6.388959951E1,-2.729734406E-4,-4.460792989E-4,3.439380089E-4
6.393959951E1,-2.729734406E-4,-9.651732398E-4,7.390264655E-4
6.398959951E1,-2.729734406E-4,-4.460792989E-4,4.525601398E-4
6.403959951E1,-3.315857612E-4,-3.874665126E-4,9.634206071E-5
6.408959951E1,-1.804903150E-6,-4.203125136E-4,-3.262370592E-4
6.413959951E1,-6.326916628E-4,4.993053153E-5,2.063947031E-4
6.418959951E1,3.961068578E-4,-4.989560694E-5,7.390264655E-4
6.423959951E1,7.429430261E-4,-4.460792989E-4,2.063947031E-4
6.428959951E1,1.240151469E-4,-8.430676535E-4,-3.262370592E-4
6.433959951E1,1.998213120E-4,-4.460792989E-4,6.628560368E-4
6.438959951E1,-2.729734406E-4,-4.460792989E-4,4.069431452E-4
6.443959951E1,-2.014897764E-4,-4.460792989E-4,-3.262370592E-4
6.448959951E1,5.184905604E-5,-4.460792989E-4,-3.262370592E-4
6.453959951E1,2.922867425E-4,-4.460792989E-4,-2.417992800E-4
6.458959951E1,3.917329013E-5,-4.460792989E-4,3.826103639E-4
6.463959951E1,-2.729734406E-4,5.788065027E-4,-3.262370592E-4
6.468959951E1,-2.729734406E-4,-1.447065733E-4,4.119996447E-5
6.473959951E1,-3.761588596E-4,-4.502551164E-4,2.063947031E-4
6.478959951E1,-2.158042043E-4,-7.923401427E-4,7.033243310E-5
6.483959951E1,-7.714282256E-4,-1.097474247E-3,2.063947031E-4
6.488959951E1,-6.512366235E-4,8.258484304E-4,3.423237940E-4
6.493959951E1,-8.363807574E-4,1.199208200E-3,-1.896956237E-4
6.498959951E1,1.202823361E-3,2.227048390E-4,-4.506556317E-3
6.503959951E1,4.727153108E-3,-2.674477175E-3,-4.264983349E-3
6.508959951E1,9.162107017E-4,-9.848622140E-4,-1.533889095E-3
6.513959951E1,5.864286795E-4,-1.856426359E-3,-5.320985802E-4
6.518959951E1,1.306816703E-3,-1.445585163E-3,1.774742734E-3
6.523959951E1,1.238165423E-4,-6.185930688E-4,1.769167138E-4
6.528959951E1,-7.101634983E-4,-2.352986485E-5,1.109529985E-4
6.533959951E1,9.829608025E-4,1.689449418E-4,-4.215724766E-4
6.538959951E1,7.922903169E-4,-1.511342824E-3,-3.262370592E-4
6.543959951E1,6.032213569E-4,-9.255418554E-4,2.595638507E-4
6.548959951E1,1.877027098E-4,-4.460792989E-4,7.390264655E-4
6.553959951E1,1.226260792E-4,2.239737660E-5,1.422393834E-4
6.558959951E1,2.015260980E-4,-4.460792989E-4,1.482622465E-4
6.563959951E1,1.238626428E-4,-9.007070912E-4,5.252266419E-4
6.568959951E1,1.240929123E-4,-9.310836904E-4,-3.262370592E-4
6.573959951E1,-2.729734406E-4,-6.698057987E-4,3.422575537E-4
6.578959951E1,-2.729734406E-4,-6.184545346E-4,3.428170457E-4
6.583959951E1,-3.644241951E-5,-4.460792989E-4,5.024955026E-4
6.588959951E1,7.922903169E-4,-9.545100620E-4,7.053429727E-5
6.593959951E1,1.480632927E-4,-4.460792989E-4,9.479967412E-5
6.598959951E1,-2.729734406E-4,-4.460792989E-4,-3.262370592E-4
6.603959951E1,-2.729734406E-4,-4.460792989E-4,7.390264655E-4
6.608959951E1,6.656206213E-3,-8.192151785E-3,9.575942531E-4
6.613959951E1,1.284385659E-2,-4.703732207E-3,-1.217313390E-2
6.618959951E1,9.227588773E-3,5.246290937E-3,-1.166357566E-2
6.623959951E1,-3.257486969E-5,-2.989150584E-3,1.499811187E-4
6.628959951E1,5.350933410E-3,2.144541591E-3,2.713641152E-6
6.633959951E1,1.116889296E-3,-1.374050509E-3,3.695528954E-3
6.638959951E1,5.621194374E-3,1.780099701E-3,-3.270745277E-3
6.643959951E1,-4.896591417E-4,-2.766658785E-3,4.106020555E-3
6.648959951E1,-3.964254633E-3,-6.957926322E-3,-3.243167419E-3
6.653959951E1,9.871264920E-3,5.046862178E-3,-1.021657232E-2
6.658959951E1,-1.361133344E-2,-1.351956185E-2,1.286228653E-2
6.663959951E1,-9.455941617E-4,-2.099117264E-3,2.046618983E-2
6.668959951E1,-5.159665365E-3,-2.332309028E-3,4.350590520E-3
6.673959951E1,-1.293545822E-3,-5.206170958E-3,-6.641002372E-3
6.678959951E1,-3.083322197E-3,-1.086948439E-2,-1.480695512E-2
6.683959951E1,1.140906941E-3,-1.811620779E-3,1.328763668E-3
6.688959951E1,-9.060136974E-3,-3.714072984E-3,4.565112293E-3
6.693959951E1,-4.061005078E-3,-5.416072905E-3,-8.567563258E-3
6.698959951E1,8.182863239E-4,-2.234083600E-3,-3.875757102E-3
6.703959951E1,-1.815600321E-3,-2.102007624E-3,8.284066571E-4
6.708959951E1,-1.185974106E-3,-3.305911319E-3,1.464737114E-3
6.713959951E1,-1.165132038E-3,-2.376867924E-3,1.609633793E-3
6.718959951E1,-1.165132038E-3,-3.433302511E-3,-1.243287697E-4
6.723959951E1,-1.165132038E-3,-3.442131914E-3,2.657736186E-4
6.728959951E1,-1.165132038E-3,-4.507395439E-3,1.858305186E-3
6.733959951E1,-7.684871089E-4,-3.699597437E-3,1.243074657E-4
6.738959951E1,-1.165132038E-3,-3.442131914E-3,-6.513288245E-4
6.743959951E1,-1.165132038E-3,-3.442131914E-3,6.861343863E-4
6.748959951E1,-1.000849064E-3,-3.838351928E-3,1.272583380E-3
6.753959951E1,3.429417964E-3,-8.637488820E-3,-5.693903659E-4
6.758959951E1,-4.611299373E-4,-5.945491605E-3,-2.509962302E-3
6.763959951E1,3.455803962E-4,-5.969005171E-3,2.371919807E-3
6.768959951E1,-9.986828081E-5,-5.077489652E-3,-1.768516144E-3
6.773959951E1,-9.543413762E-4,-2.340509556E-3,-9.832205251E-5
6.778959951E1,-4.747991916E-4,-1.058274880E-3,1.312489528E-2
6.783959951E1,-1.436799765E-3,-4.507990088E-3,-1.073589316E-3
6.788959951E1,4.215128720E-4,-5.175842904E-3,-6.124560721E-3
6.793959951E1,-9.986828081E-5,-4.694853444E-3,1.226006658E-3
6.798959951E1,-1.386204734E-3,-4.065250047E-3,1.555223716E-3
6.803959951E1,-2.326962538E-3,-5.006850697E-4,-6.263456307E-4
6.808959951E1,-5.362797529E-3,2.732752822E-3,7.285091560E-4
6.813959951E1,-9.324713610E-4,-3.402111586E-3,1.095736166E-3
6.818959951E1,-9.202184156E-4,-3.442131914E-3,2.905636793E-4
6.823959951E1,-4.967090208E-4,-3.442131914E-3,3.834388917E-4
6.828959951E1,-7.682992145E-4,-4.251914099E-3,5.191563396E-4
6.833959951E1,-1.165132038E-3,-3.442131914E-3,7.602036931E-6
6.838959951E1,-1.165132038E-3,-3.442131914E-3,5.317108007E-4
6.843959951E1,-1.165132038E-3,-3.442131914E-3,9.395475499E-4
6.848959951E1,-8.860691451E-4,-3.442131914E-3,6.457768031E-4
6.853959951E1,-1.047600759E-3,-3.442131914E-3,-1.146803843E-4
6.858959951E1,-1.165132038E-3,-3.442131914E-3,5.363950040E-4
6.863959951E1,-6.645114627E-4,-3.442131914E-3,9.000940481E-4
6.868959951E1,-1.165132038E-3,-3.838971723E-3,-1.331581734E-4
6.873959951E1,-1.165132038E-3,-3.932416439E-3,8.389389259E-4
6.878959951E1,-7.684568409E-4,-3.756471910E-3,9.321053512E-4
6.883959951E1,-1.165132038E-3,-4.003611393E-3,8.785825339E-4
6.888959951E1,-1.165132038E-3,-3.442131914E-3,-1.331581734E-4
6.893959951E1,-1.165132038E-3,-3.442131914E-3,7.951009320E-4
6.898959951E1,-1.165132038E-3,-3.781714011E-3,2.628817456E-4
6.903959951E1,-6.893882528E-4,-3.577942727E-3,-1.331581734E-4
6.908959951E1,-1.165132038E-3,-3.760304768E-3,6.139326142E-4
6.913959951E1,-1.165132038E-3,-3.442131914E-3,9.321053512E-4
6.918959951E1,-1.165132038E-3,-3.442131914E-3,5.359582719E-4
6.923959951E1,-1.165132038E-3,-3.442131914E-3,9.321053512E-4
6.928959951E1,-1.165132038E-3,-3.442131914E-3,5.352982553E-4
6.933959951E1,-6.562040653E-4,-3.442131914E-3,9.321053512E-4
6.938959951E1,-1.165132038E-3,-3.442131914E-3,1.509038266E-4
6.943959951E1,-1.165132038E-3,-3.963213414E-3,9.205549723E-4
6.948959951E1,-7.684854791E-4,-3.442131914E-3,9.321053512E-4
6.953959951E1,-4.974252079E-4,-3.442131914E-3,-2.682330087E-4
6.958959951E1,-5.085102748E-4,-3.033489920E-3,-3.940958995E-4
6.963959951E1,-1.016119029E-3,-3.442131914E-3,9.321053512E-4
6.968959951E1,-4.967385903E-4,-3.862943733E-3,9.321053512E-4
6.973959951E1,-9.986828081E-5,-4.507395439E-3,-1.198421698E-3
6.978959951E1,-4.964182153E-4,-3.679804038E-3,-1.198421698E-3
6.983959951E1,-6.671387237E-4,-3.442131914E-3,4.341120366E-4
6.988959951E1,-1.165132038E-3,-3.442131914E-3,9.321053512E-4
6.993959951E1,-9.818687104E-4,-4.022170790E-3,-2.239800990E-3
6.998959951E1,-9.986828081E-5,-4.507395439E-3,-6.253354251E-3
7.003959951E1,-2.945079468E-4,-3.916935064E-3,-3.018652089E-3
7.008959951E1,-1.165132038E-3,-4.773674998E-3,-1.198421698E-3
7.013959951E1,-1.816389617E-3,-5.413138773E-3,-2.867459785E-3
7.018959951E1,-9.751757607E-4,-5.165404640E-3,-1.100027002E-3
7.023959951E1,-1.957953908E-3,-9.166946635E-3,2.176243346E-3
7.028959951E1,-1.466621645E-3,-9.399902076E-3,1.328229206E-3
7.033959951E1,-2.230395563E-3,-2.860022243E-3,3.051278181E-4
7.038959951E1,-3.129203804E-3,-1.200817898E-2,1.162609668E-3
7.043959951E1,-1.008638646E-3,-3.953933716E-3,-5.301262718E-4
7.048959951E1,-3.140001558E-3,-1.063436829E-2,2.199732931E-3
7.053959951E1,-2.484236844E-3,-7.795759942E-3,6.782640703E-4
7.058959951E1,-2.769963816E-3,-7.205234841E-3,-1.331581734E-4
7.063959951E1,-4.886481911E-4,-3.459895961E-4,2.556215040E-4
7.068959951E1,-1.156677259E-3,-4.081701860E-3,3.467188682E-3
7.073959951E1,1.259173732E-4,-5.192183889E-4,3.573938739E-3
7.078959951E1,-1.082018018E-3,-4.240909591E-3,1.611211337E-3
7.083959951E1,-3.213474993E-4,-2.159742173E-3,1.214321237E-3
7.088959951E1,-1.071712468E-3,-3.692186438E-3,1.475495053E-3
7.093959951E1,-1.029031817E-3,-4.109325353E-3,-2.195674460E-4
7.098959951E1,-6.625689566E-4,-2.767710947E-3,1.039147261E-3
7.103959951E1,-6.559935864E-4,-3.307364415E-3,1.565380488E-3
7.108959951E1,8.107186295E-4,3.879357595E-3,1.841597841E-4
7.113959951E1,-4.800683819E-4,-6.771468907E-4,1.995856874E-4
7.118959951E1,1.301763114E-3,6.874044891E-3,2.450647298E-5
7.123959951E1,-8.980138227E-5,-1.331420150E-3,-9.154613363E-4
7.128959951E1,1.489083981E-3,4.357027356E-3,6.214696914E-4
7.133959951E1,-4.307529889E-4,-2.710283035E-3,1.983982045E-3
7.138959951E1,1.548460918E-3,5.610174034E-3,-1.086560078E-3
7.143959951E1,1.342606964E-3,4.193416797E-3,-2.291374840E-3
7.148959951E1,4.993421026E-4,5.217656493E-3,-1.606261358E-4
7.153959951E1,7.602912374E-4,7.910445565E-4,-5.097489338E-5
7.158959951E1,1.005088445E-3,2.498316113E-3,1.221148996E-4
7.163959951E1,1.031974098E-3,8.337382460E-4,1.323335804E-3
7.168959951E1,3.934199922E-4,-5.955543602E-4,-1.917484682E-3
7.173959951E1,-3.669830039E-5,2.494215500E-3,-7.028620224E-3
7.178959951E1,9.903754108E-5,3.698922694E-3,-3.857779317E-3
7.183959951E1,-3.328965977E-5,-1.886982704E-3,2.959532896E-3
7.188959951E1,-1.792889088E-4,-5.930627813E-4,2.761423588E-3
7.193959951E1,1.128667500E-4,3.332557157E-3,-9.373272769E-4
7.198959951E1,1.158220344E-3,-3.122127615E-3,-7.179060485E-4
7.203959951E1,-4.610989708E-4,1.993657090E-3,1.183402026E-3
7.208959951E1,-1.990864985E-4,-4.909406998E-4,1.443532296E-3
7.213959951E1,-3.688056022E-4,3.900773358E-3,1.735751634E-3
7.218959951E1,1.341456897E-3,6.148259854E-4,1.920694252E-3
7.223959951E1,8.151200600E-4,-3.349859267E-3,5.459478125E-4
7.228959951E1,-3.328965977E-5,-6.032828824E-4,-5.193157122E-4
7.233959951E1,-8.931350894E-4,-3.523077816E-3,8.046658477E-4
7.238959951E1,-3.328965977E-5,-4.942846135E-4,9.543373017E-4
7.243959951E1,-3.328965977E-5,-1.695736777E-3,1.327913022E-3
7.248959951E1,-7.015706506E-4,-3.256765194E-3,7.603649283E-4
7.253959951E1,-6.120274775E-4,-2.616640180E-3,7.281255675E-4
7.258959951E1,-4.758711439E-4,-4.052351229E-3,1.450845390E-3
7.263959951E1,4.653190263E-4,-1.288762782E-3,6.258606445E-4
7.268959951E1,1.594270580E-4,8.211490931E-4,-2.366725355E-3
7.273959951E1,3.183884546E-4,1.753097051E-3,-3.607261460E-4
7.278959951E1,1.450738870E-3,3.274806775E-3,-2.231078222E-3
7.283959951E1,1.031974098E-3,1.141878660E-3,-1.333928201E-3
7.288959951E1,5.091135390E-4,2.828454599E-3,-1.729986630E-3
7.293959951E1,-1.678548288E-4,-1.623363001E-3,-9.156682063E-4
7.298959951E1,1.031974098E-3,2.617497463E-3,-1.238861587E-4
7.303959951E1,-4.298442509E-4,-3.691893537E-3,9.289017180E-4
7.308959951E1,6.487634964E-4,2.101328690E-3,-1.201368636E-3
7.313959951E1,4.755572882E-4,-1.108258264E-3,-1.028162427E-3
7.318959951E1,2.876096405E-4,2.223704476E-3,1.239029109E-3
7.323959951E1,4.993421026E-4,-2.211263403E-3,-3.205065150E-4
7.328959951E1,-3.328965977E-5,3.310047323E-4,-5.193157122E-4
7.333959951E1,-5.189580843E-4,-1.747247530E-3,5.459478125E-4
7.338959951E1,-3.528604284E-4,2.991838846E-5,2.007431816E-3
7.343959951E1,-1.097796485E-4,2.503024880E-3,5.625876365E-4
7.348959951E1,-3.328965977E-5,3.548990935E-3,6.059415173E-4
7.353959951E1,-4.951369483E-4,-2.824012656E-3,1.489228453E-4
7.358959951E1,-3.328965977E-5,-2.952509560E-3,2.007088624E-3
7.363959951E1,5.035195500E-5,-4.786674981E-4,5.985097378E-4
7.368959951E1,-7.583317347E-5,-1.303391182E-3,5.871781614E-4
7.373959951E1,2.694020513E-4,1.014601090E-3,-1.448914874E-3
7.378959951E1,-7.325506303E-4,-3.525619861E-3,-5.193157122E-4
7.383959951E1,5.743661895E-4,-1.967324875E-3,5.153495003E-4
7.388959951E1,6.528205704E-4,4.779401934E-4,1.499701757E-4
7.393959951E1,-4.298584536E-4,-1.355305780E-3,1.331605017E-5
7.398959951E1,2.445438877E-4,9.169914993E-4,2.681144397E-4
7.403959951E1,-4.366836511E-4,-2.298157196E-3,1.604559133E-3
7.408959951E1,3.686735872E-4,-2.774782479E-5,-3.809641348E-4
7.413959951E1,5.050157197E-4,7.922878722E-4,5.459478125E-4
7.418959951E1,6.183830556E-4,1.545715728E-3,-2.644306514E-4
7.423959951E1,-3.328965977E-5,2.007009462E-3,-1.432044199E-3
7.428959951E1,7.881768979E-4,1.550699701E-3,-1.228932524E-4
7.433959951E1,8.671251126E-4,3.048629034E-3,3.810989438E-4
7.438959951E1,8.400338702E-4,1.004104619E-3,3.142121132E-4
7.443959951E1,1.569665736E-3,4.529667553E-3,8.467137231E-4
7.448959951E1,-2.539595589E-4,6.979940226E-4,1.496104524E-4
7.453959951E1,5.511743948E-4,3.503072541E-3,1.496270997E-4
7.458959951E1,5.714707077E-4,4.059477244E-3,1.402967726E-3
7.463959951E1,-1.367388293E-3,-6.758801173E-3,1.214529620E-3
7.468959951E1,4.210718907E-5,4.742582096E-4,2.083094325E-3
7.473959951E1,-4.297024570E-4,2.127878368E-3,1.003070385E-3
7.478959951E1,3.633438610E-4,4.057114013E-3,-3.345531877E-4
7.483959951E1,2.792224521E-3,1.008194964E-2,8.449332090E-4
7.488959951E1,-3.328965977E-5,-3.762122360E-4,1.437894418E-3
7.493959951E1,-3.328965977E-5,-1.184754190E-3,9.427701589E-4
7.498959951E1,4.745707847E-4,1.816535485E-3,-3.576588351E-4
7.503959951E1,5.358927883E-4,3.064618446E-3,1.250841888E-4
7.508959951E1,-1.819459721E-4,3.418455599E-4,5.459478125E-4
7.513959951E1,-3.328965977E-5,-2.125313040E-3,6.983552012E-4
7.518959951E1,-3.328965977E-5,-1.247386914E-3,-5.193157122E-4
7.523959951E1,3.647594713E-4,3.438795917E-3,-5.193157122E-4
7.528959951E1,-5.553949159E-4,-1.533088740E-3,-5.193157122E-4
7.533959951E1,-1.489138231E-4,-5.642714677E-4,-5.193157122E-4
7.538959951E1,4.993421026E-4,-2.435926814E-3,-8.193252143E-5
7.543959951E1,2.605526242E-4,-3.278826363E-3,-8.338183397E-4
7.548959951E1,4.993421026E-4,-1.887875609E-3,-1.228094334E-4
7.553959951E1,-3.386542667E-4,1.948318677E-4,-1.224076841E-4
7.558959951E1,3.637624905E-4,1.223401749E-3,1.030819025E-3
7.563959951E1,-3.328965977E-5,-1.968554687E-3,9.354475769E-4
7.568959951E1,8.955362719E-4,3.289197106E-3,-1.231217757E-4
7.573959951E1,2.952720970E-4,-6.295101484E-4,5.901958211E-4
7.578959951E1,9.638932534E-4,4.820728209E-3,-9.160304908E-4
7.583959951E1,-3.328965977E-5,-3.870408051E-3,-1.681731082E-4
7.588959951E1,9.758705273E-4,3.717907704E-3,6.127401721E-3
7.593959951E1,6.351461634E-4,-1.389688929E-3,1.938272617E-4
7.598959951E1,1.337859896E-3,2.997700591E-3,1.331605017E-5
7.603959951E1,5.791243166E-5,2.559035551E-3,-5.790395662E-4
7.608959951E1,-3.328965977E-5,1.383329509E-4,-9.477513377E-4
7.613959951E1,-4.087954294E-4,-2.407997381E-3,1.694019651E-3
7.618959951E1,-5.487329327E-5,-1.327459118E-3,2.426230581E-3
7.623959951E1,-3.328965977E-5,-1.803241437E-3,-1.302229939E-3
7.628959951E1,-3.328965977E-5,-1.105409581E-3,-1.728810370E-3
7.633959951E1,-4.295324907E-4,-3.603662364E-3,3.600039519E-3
7.638959951E1,7.551028393E-4,1.909262501E-4,9.330553585E-4
7.643959951E1,-1.098553184E-3,-4.065816756E-3,2.477357164E-3
7.648959951E1,-3.328965977E-5,-1.395523199E-3,4.751403816E-3
7.653959951E1,-8.520376869E-4,-4.697042750E-4,2.241727151E-2
7.658959951E1,1.609895611E-3,8.014607010E-4,2.866953425E-2
7.663959951E1,-2.676742151E-4,-1.758578466E-3,-1.712304074E-3
7.668959951E1,-7.535321638E-4,-3.824607469E-3,1.109817624E-2
7.673959951E1,1.031974098E-3,-2.378645819E-3,5.363912322E-3
7.678959951E1,-3.328965977E-5,-1.965351868E-3,7.876974996E-5
7.683959951E1,-5.498644896E-4,-3.622797318E-3,-1.736502396E-3
7.688959951E1,3.633936867E-4,4.547242541E-3,-7.869210094E-6
7.693959951E1,-1.060194336E-4,-8.477509255E-4,2.207713667E-3
7.698959951E1,1.364535419E-3,1.330497907E-4,1.918678754E-4
7.703959951E1,4.662871361E-4,-4.751916975E-3,-1.500039129E-3
7.708959951E1,6.350185722E-4,4.657374695E-3,5.459478125E-4
7.713959951E1,6.351040211E-4,-2.206115052E-3,4.004560877E-3
7.718959951E1,1.264121616E-3,3.684503492E-3,2.266570460E-3
7.723959951E1,-7.148869336E-4,-1.287234249E-3,2.787674777E-3
7.728959951E1,1.609421801E-3,6.703952793E-3,-1.340671442E-3
7.733959951E1,-4.303872120E-4,-2.243497409E-3,9.078029543E-4
7.738959951E1,5.233550910E-4,1.785646891E-4,8.002573159E-4
7.743959951E1,-9.670262225E-4,1.929978607E-4,5.562634906E-4
7.748959951E1,3.251152346E-3,5.998911802E-3,-6.430274807E-4
7.753959951E1,-1.882030163E-3,-8.000831120E-3,3.734741826E-3
7.758959951E1,6.982132327E-4,3.424786497E-3,2.516608685E-3
7.763959951E1,5.575250834E-4,1.482298714E-3,-4.804049153E-3
7.768959951E1,-5.077384412E-5,-1.113025122E-3,-1.159417676E-3
7.773959951E1,8.648703806E-4,2.027208451E-3,3.605648875E-3
7.778959951E1,-3.992682323E-4,-3.482651664E-4,1.372965868E-3
7.783959951E1,-5.113617517E-4,-2.121485770E-3,-1.981477020E-3
7.788959951E1,6.333226338E-4,1.321171760E-3,-5.621440941E-4
7.793959951E1,-1.304654870E-3,-8.670420386E-3,3.864346305E-3
7.798959951E1,1.411405625E-3,7.193723228E-3,1.285214908E-3
7.803959951E1,5.699526519E-4,6.720250938E-3,-4.487053957E-4
7.808959951E1,-4.301900044E-4,-2.802314702E-3,-8.560941787E-4
7.813959951E1,1.031973865E-3,4.028614610E-3,-1.584579237E-3
7.818959951E1,9.561788756E-4,4.257439636E-3,-4.725321196E-5
7.823959951E1,2.445895458E-3,8.458868600E-3,-1.844820799E-3
7.828959951E1,2.546311589E-3,7.584626321E-3,-5.717220483E-4
7.833959951E1,-1.089105383E-3,-6.372558419E-3,2.964407904E-3
7.838959951E1,-5.514966324E-4,-1.683783368E-3,1.162907341E-3
7.843959951E1,-5.659214221E-4,1.101834350E-3,3.200598876E-4
7.848959951E1,-2.038469538E-4,3.845739644E-3,-1.710110810E-3
7.853959951E1,-5.533709191E-4,-2.358282218E-3,1.586110564E-3
7.858959951E1,1.549832290E-3,3.135550302E-3,1.215504599E-3
7.863959951E1,2.395173069E-4,5.269238027E-4,-1.584066544E-3
7.868959951E1,8.153170347E-5,-3.716141451E-3,-1.041432377E-3
7.873959951E1,1.157852821E-3,1.914467080E-3,2.028262708E-3
7.878959951E1,1.031974098E-3,1.742818975E-3,-6.283283001E-4
7.883959951E1,5.926443264E-4,-8.083658759E-5,-1.928034239E-3
7.888959951E1,-4.650058690E-4,6.915694103E-4,3.741738619E-3
7.893959951E1,6.900676526E-4,9.603460785E-5,1.937717665E-3
7.898959951E1,-2.143811435E-4,1.955358777E-3,-4.227038007E-3
7.903959951E1,1.337679918E-3,2.951520961E-3,-7.253246848E-3
7.908959951E1,-3.328965977E-5,2.983931918E-3,-1.766604371E-3
7.913959951E1,3.634570166E-4,-3.484305926E-4,6.623681402E-4
7.918959951E1,-8.275588043E-4,-4.272726830E-3,1.611211337E-3
7.923959951E1,1.688001910E-3,5.585471634E-3,-9.156079032E-4
7.928959951E1,-4.292870872E-4,-3.430760466E-3,-5.193157122E-4
7.933959951E1,1.592172310E-3,6.759609561E-3,5.307315732E-4
7.938959951E1,-1.050880644E-3,-4.887836985E-3,1.208606176E-3
7.943959951E1,1.384964096E-3,4.013132770E-3,-3.427262418E-3
7.948959951E1,-1.158605795E-3,-9.420788265E-4,1.776883146E-3
7.953959951E1,-2.130134962E-4,-8.103615837E-4,9.423756273E-4
7.958959951E1,-7.015978917E-4,-7.661052514E-4,1.489925198E-4
7.963959951E1,-6.818762049E-4,-7.830278482E-4,2.927852329E-3
7.968959951E1,7.402773481E-4,3.066024743E-3,8.574856911E-4
7.973959951E1,9.826198220E-5,-1.238747383E-3,-1.848274842E-3
7.978959951E1,1.948199933E-3,1.798339305E-3,-1.576180803E-3
7.983959951E1,-4.168748856E-4,-4.969558679E-3,1.766971778E-3
7.988959951E1,-5.509650800E-4,2.271772828E-4,1.686993171E-3
7.993959951E1,1.156925806E-3,3.431249876E-3,-2.473162953E-3
7.998959951E1,-9.626219980E-4,-3.532865550E-3,1.365328906E-3
8.003959951E1,-6.296869833E-4,-1.499784528E-3,8.441463578E-4
8.008959951E1,8.362524677E-4,2.676606644E-3,1.111767488E-4
8.013959951E1,7.684333250E-4,1.582422177E-3,-2.085946035E-4
8.018959951E1,4.266761243E-4,4.077507183E-4,4.964903928E-5
8.023959951E1,2.634199336E-4,-2.291671699E-4,-8.415027987E-4
8.028959951E1,4.734683316E-4,-3.664371558E-3,2.998737153E-3
8.033959951E1,1.699427259E-3,9.493589401E-3,-1.158893574E-4
8.038959951E1,-5.393358879E-5,6.606919924E-4,-3.631640691E-3
8.043959951E1,-1.452529337E-3,-4.859562498E-3,1.653739135E-3
8.048959951E1,5.844705738E-4,2.237053588E-3,5.118200090E-3
8.053959951E1,-1.186064910E-4,-1.615871908E-3,7.649575127E-4
8.058959951E1,1.332432264E-3,4.883273970E-3,-3.443600144E-3
8.063959951E1,-3.328965977E-5,-1.887985738E-3,6.812526844E-4
8.068959951E1,1.004011836E-3,-6.049670628E-4,2.143843099E-3
8.073959951E1,6.355224177E-4,1.898575691E-3,4.524464021E-4
8.078959951E1,6.196419708E-4,1.037897891E-3,-1.569065964E-3
8.083959951E1,6.402542349E-4,1.640929957E-3,-1.249066554E-5
8.088959951E1,-2.956998069E-4,2.481528791E-4,2.269846154E-3
8.093959951E1,-1.759042498E-3,-6.411161274E-3,2.271700650E-3
8.098959951E1,1.159476233E-3,5.803808104E-3,-5.193157122E-4
8.103959951E1,1.448067604E-3,5.518452730E-3,2.937414101E-4
8.108959951E1,8.342368528E-5,5.923698191E-4,9.428764461E-4
8.113959951E1,-6.426731125E-5,-1.497578458E-3,1.186005538E-4
8.118959951E1,5.302580539E-4,-1.354654087E-4,-1.082863193E-3
8.123959951E1,1.964108087E-4,-1.337564318E-4,8.654705016E-5
8.128959951E1,-8.257345762E-4,-1.163483597E-3,1.432741061E-3
8.133959951E1,1.210531453E-3,4.984914325E-3,-7.524190005E-4
8.138959951E1,-5.115268286E-4,-3.173165605E-4,-4.107842688E-5
8.143959951E1,3.633960150E-4,3.019272815E-3,-5.712267011E-5
8.148959951E1,-6.313649938E-4,-3.154707141E-3,-1.322805649E-3
8.153959951E1,2.459664829E-4,-1.407224219E-3,1.020314987E-3
8.158959951E1,1.234668307E-4,-8.223422919E-4,3.891916131E-4
8.163959951E1,5.451748148E-4,3.674129257E-4,-1.889673527E-3
8.168959951E1,1.920592040E-4,-8.610036457E-4,-9.621139616E-4
8.173959951E1,-2.289786935E-4,-1.349028782E-3,8.052562480E-4
8.178959951E1,1.323104370E-4,1.398273278E-3,1.148005831E-3
8.183959951E1,-6.956127472E-4,-1.524679363E-3,1.544632018E-3
8.188959951E1,1.581402263E-3,1.827190164E-3,4.793685221E-4
8.193959951E1,1.162680099E-3,8.432706818E-4,-4.385515931E-4
8.198959951E1,-3.117830493E-4,-3.395135980E-3,-5.858949735E-4
8.203959951E1,1.025221776E-3,6.412438117E-3,-9.814663790E-4
8.208959951E1,-9.680353105E-4,-4.605882801E-3,2.337026410E-3
8.213959951E1,-4.119311925E-4,-1.158397645E-4,5.799297942E-4
8.218959951E1,7.656586822E-4,2.145230537E-3,-1.651158556E-3
8.223959951E1,-1.092968509E-3,-2.569582313E-3,-6.992186536E-4
8.228959951E1,1.457786770E-3,4.776002839E-3,1.062331721E-4
8.233959951E1,-9.936047718E-5,1.393789891E-3,7.963277167E-4
8.238959951E1,4.464482889E-3,4.392132163E-3,-1.924171858E-2
8.243959951E1,-6.059685256E-4,-1.118426793E-3,-4.348937073E-4
8.248959951E1,-8.695712313E-5,-1.012095599E-3,9.053390822E-4
8.253959951E1,-1.121945214E-3,-3.855824471E-3,-1.000661869E-3
8.258959951E1,-1.364868600E-3,-4.307907075E-3,-6.449159118E-4
8.263959951E1,-2.296707127E-3,-8.001129143E-3,2.204323187E-3
8.268959951E1,7.420335896E-4,2.748922212E-3,1.523114042E-4
8.273959951E1,1.748726470E-3,9.337257594E-3,6.037708838E-3
8.278959951E1,9.439908899E-5,-3.362291027E-4,3.430930432E-3
8.283959951E1,-2.144509926E-4,6.229765713E-4,8.946961025E-4
8.288959951E1,-2.996050753E-4,6.577998865E-4,4.073994234E-3
8.293959951E1,-7.279452402E-4,-2.281470224E-3,3.750768374E-4
8.298959951E1,9.620888159E-5,6.547947414E-4,-9.635575698E-4
8.303959951E1,-1.167486887E-3,-2.156397328E-3,-2.698028926E-3
8.308959951E1,-7.459921762E-4,1.925651915E-3,-1.143341186E-3
8.313959951E1,-9.653449524E-4,-8.859958500E-3,1.280669356E-3
8.318959951E1,-1.649600454E-4,-2.905760426E-3,-7.193420897E-4
8.323959951E1,3.804594744E-4,-4.541072994E-3,-8.292635321E-4
8.328959951E1,2.227938268E-3,1.109191030E-2,7.266229019E-3
8.333959951E1,9.750481695E-5,2.239085035E-3,1.207799930E-2
8.338959951E1,-2.996050753E-4,6.241586525E-4,-1.961864997E-3
8.343959951E1,2.058530226E-4,1.187575981E-4,3.224048996E-3
8.348959951E1,1.365118660E-4,1.604060177E-3,3.472232958E-3
8.353959951E1,-3.959056921E-4,-1.525247470E-3,1.288616098E-3
8.358959951E1,9.718956426E-5,1.635163324E-3,-1.430676319E-3
8.363959951E1,-1.093406463E-3,-4.651099443E-3,-3.990580444E-4
8.368959951E1,1.014785375E-3,6.713590119E-4,4.167233128E-4
8.373959951E1,3.680330701E-4,1.654196996E-3,-1.327010104E-3
8.378959951E1,-1.006983221E-4,-7.659160765E-4,8.252245607E-5
8.383959951E1,-1.784849446E-3,-5.300531164E-3,4.793685221E-4
8.388959951E1,5.048518069E-4,1.559857046E-3,1.358646783E-3
8.393959951E1,8.149081841E-4,1.782708103E-3,-7.594789495E-4
8.398959951E1,-1.257110853E-4,-1.136604464E-3,6.261151866E-4
8.403959951E1,9.665056132E-5,-9.964720812E-5,2.452695044E-4
8.408959951E1,9.694532491E-5,-2.089370973E-4,-1.488874666E-3
8.413959951E1,-1.364868600E-3,-5.550072528E-3,-1.651158556E-3
8.418959951E1,-1.090430655E-3,-5.823742598E-3,-1.651158556E-3
8.423959951E1,-6.053736433E-4,-5.841847509E-3,-1.352785621E-2
8.428959951E1,5.073545035E-4,4.536181223E-4,-1.042961609E-3
8.433959951E1,1.165033551E-3,3.784332657E-3,-1.890651765E-4
8.438959951E1,5.176555831E-3,1.978908479E-2,-2.837675856E-5
8.443959951E1,4.283936229E-3,1.147889346E-2,-6.683661486E-4
8.448959951E1,3.291789908E-4,1.102458918E-3,-9.339881944E-4
8.453959951E1,-2.996050753E-4,8.617821150E-4,1.027816907E-4
8.458959951E1,-2.681412734E-4,-2.548055490E-4,1.439911081E-3
8.463959951E1,3.691168968E-4,-1.918945927E-4,2.369243302E-4
8.468959951E1,2.330266871E-4,1.731051598E-4,-6.787848542E-4
8.473959951E1,-2.996050753E-4,1.731051598E-4,4.658318358E-5
8.478959951E1,-2.996050753E-4,1.731051598E-4,5.598283606E-4
8.483959951E1,4.241014831E-4,4.999660887E-4,-5.711988197E-4
8.488959951E1,7.656586822E-4,7.093816530E-4,-1.118526794E-3
8.493959951E1,3.071548417E-5,1.731051598E-4,1.490479335E-4
8.498959951E1,-2.996050753E-4,9.485869668E-5,1.408488373E-3
8.503959951E1,-2.996050753E-4,-1.444399823E-4,8.331582649E-5
8.508959951E1,1.417454332E-4,-3.148434917E-4,-5.326321116E-5
8.513959951E1,-2.996050753E-4,1.731051598E-4,-5.858949735E-4
8.518959951E1,-1.981982496E-4,-3.253656905E-4,-6.873017992E-4
8.523959951E1,-4.564411938E-6,1.731051598E-4,-8.809356368E-4
8.528959951E1,-2.996050753E-4,1.731051598E-4,-5.326321116E-5
8.533959951E1,-2.996050753E-4,1.731051598E-4,1.262558391E-3
8.538959951E1,2.330266871E-4,-4.742946476E-4,-5.326321116E-5
8.543959951E1,-2.927938476E-5,-9.851483628E-5,-1.651158556E-3
8.548959951E1,-2.972334623E-4,-8.897868684E-4,-1.117340988E-3
8.553959951E1,3.563312348E-4,1.731051598E-4,6.168656982E-4
8.558959951E1,5.187150091E-4,9.664034005E-4,-6.577413296E-5
8.563959951E1,3.442848101E-4,1.731051598E-4,-5.858949735E-4
8.568959951E1,7.656586822E-4,1.224013977E-5,4.793685221E-4
8.573959951E1,-2.801790833E-5,2.983564045E-4,-3.499778104E-4
8.578959951E1,-4.719384015E-4,1.731051598E-4,-1.154213911E-3
8.583959951E1,-5.233944394E-4,1.731051598E-4,-3.644679091E-4
8.588959951E1,-1.150567550E-4,-3.108297242E-4,8.761488716E-4
8.593959951E1,-1.461519860E-4,-6.796780508E-4,-3.734146594E-4
8.598959951E1,-2.128328197E-5,1.792720286E-4,-1.455964753E-3
8.603959951E1,-9.687074926E-4,-2.284718212E-4,-5.858949735E-4
8.608959951E1,-4.678335972E-5,-2.619229490E-4,8.275004802E-5
8.613959951E1,-8.026228752E-4,-8.964160806E-4,-8.766187239E-4
8.618959951E1,7.656586822E-4,2.262340859E-4,2.478018287E-4
8.623959951E1,-1.500152517E-3,-1.110363984E-3,1.940781251E-3
8.628959951E1,-1.826739870E-3,2.162111457E-3,4.552936298E-4
8.633959951E1,4.996119533E-4,8.959469851E-4,-1.651158556E-3
8.638959951E1,3.125397488E-4,-1.021032338E-3,-1.409523189E-3
8.643959951E1,-9.684241377E-4,2.817566739E-3,8.384177927E-4
8.648959951E1,-5.535800010E-4,1.731051598E-4,-8.208471700E-4
8.653959951E1,-1.103105024E-3,1.888916595E-3,-1.651158556E-3
8.658959951E1,6.292809267E-4,-6.247629644E-4,-5.858949735E-4
8.663959951E1,-2.996050753E-4,8.465971332E-4,-5.911491462E-4
8.668959951E1,1.320535084E-3,-2.679643221E-4,-2.206034958E-3
8.673959951E1,1.298290328E-3,-8.590135258E-4,1.887558028E-5
8.678959951E1,-4.067132249E-4,1.997655025E-3,1.255375915E-3
8.683959951E1,4.151305184E-4,2.253521001E-3,-5.371750332E-3
8.688959951E1,-1.897655893E-3,1.238679048E-3,-2.115966752E-3
8.693959951E1,1.770318486E-4,-3.717341926E-3,-2.153610694E-4
8.698959951E1,2.704405226E-3,4.053593613E-3,-1.660795137E-2
8.703959951E1,2.094454132E-2,2.125416137E-2,-1.656598896E-1
8.708959951E1,9.761808440E-3,7.439446636E-3,-1.528630108E-1
8.713959951E1,3.413595259E-4,1.061639190E-2,-4.143920913E-2
8.718959951E1,8.583456278E-3,-3.218977945E-3,-4.455804080E-2
8.723959951E1,3.216954647E-3,-4.865345545E-5,2.195730805E-3
8.728959951E1,3.569262801E-3,1.017772593E-4,1.420739852E-2
8.733959951E1,1.269995421E-2,1.380461082E-2,2.544060536E-2
8.738959951E1,-1.712151803E-3,-2.044127556E-3,2.223317325E-2
8.743959951E1,7.263640873E-5,1.972691389E-4,2.587030875E-3
8.748959951E1,7.129693404E-5,7.410184480E-5,1.842311234E-3
8.753959951E1,7.656586822E-4,6.798817776E-4,-2.740783384E-5
8.758959951E1,7.656586822E-4,5.561427679E-4,-5.858949735E-4
8.763959951E1,2.330266871E-4,1.862708014E-4,6.973859854E-5
8.768959951E1,-2.996050753E-4,-2.236631699E-4,1.149760792E-3
8.773959951E1,-2.996050753E-4,-2.258120803E-4,-5.326321116E-5
8.778959951E1,-2.996050753E-4,1.731051598E-4,-1.388294622E-3
8.783959951E1,6.199849304E-4,1.731051598E-4,-4.402212217E-4
8.788959951E1,-2.996050753E-4,1.731051598E-4,8.757339674E-4
8.793959951E1,-2.996050753E-4,1.731051598E-4,-7.510249270E-5
8.798959951E1,1.296561677E-4,1.731051598E-4,-5.858949735E-4
8.803959951E1,2.006436698E-4,-3.919096198E-4,-8.564622840E-5
8.808959951E1,-2.996050753E-4,-4.503575619E-4,2.518309047E-4
8.813959951E1,1.864605583E-3,5.695901345E-4,-3.711954341E-4
8.818959951E1,1.106101554E-3,1.023422461E-3,-1.481727697E-3
8.823959951E1,1.658874191E-2,1.434195507E-2,-1.350070816E-3
8.828959951E1,3.859405220E-2,3.633590043E-2,-2.077892795E-2
8.833959951E1,-1.394021790E-3,-1.262601465E-3,-6.657121121E-4
8.838959951E1,8.544169832E-4,1.418669475E-3,-4.943530657E-4
8.843959951E1,-3.720901441E-3,-2.613826888E-3,1.377366018E-2
8.848959951E1,-3.109755460E-3,-3.120917128E-3,1.671060221E-3
8.853959951E1,4.324567970E-3,2.542769769E-3,-7.443703245E-3
8.858959951E1,4.147214815E-2,3.868800774E-2,-1.599988528E-2
8.863959951E1,1.554276422E-2,1.477490831E-2,-2.669187961E-3
8.868959951E1,-2.899999730E-2,-2.616430447E-2,1.949828118E-2
8.873959951E1,2.092181332E-2,1.897750236E-2,-7.084330078E-3
8.878959951E1,-1.078979671E-2,-1.111050230E-2,-4.524946213E-3
8.883959951E1,4.236746114E-3,2.586329123E-3,-9.796608239E-3
8.888959951E1,6.494787522E-4,1.518907258E-3,6.864865776E-3
8.893959951E1,-3.855406772E-3,-2.866560593E-3,5.222001579E-3
8.898959951E1,1.184349880E-2,1.050345879E-2,4.102700041E-4
8.903959951E1,1.789781637E-2,1.635118760E-2,-7.364457007E-3
8.908959951E1,6.092718244E-2,5.643165484E-2,-3.117508069E-2
8.913959951E1,1.062833443E-1,1.006866321E-1,-5.937429890E-2
8.918959951E1,1.897874773E-1,1.816630512E-1,7.844628394E-2
8.923959951E1,1.401229501E-1,1.373696178E-1,7.155845314E-2
8.928959951E1,2.620738372E-2,2.488890104E-2,1.060585864E-2
8.933959951E1,-1.732923556E-3,-9.393305518E-4,-2.074658871E-3
8.938959951E1,-7.547670510E-3,-6.226101890E-3,9.309044690E-4
8.943959951E1,-5.089420453E-2,-4.553473741E-2,2.266611345E-2
8.948959951E1,-1.546699181E-2,-1.549651474E-2,-2.616345300E-4
8.953959951E1,3.732958343E-3,3.616085742E-4,-9.723705589E-4
8.958959951E1,1.137418672E-2,1.136669610E-2,-6.383258733E-4
8.963959951E1,5.612940993E-3,5.645546131E-3,1.188084483E-3
8.968959951E1,-1.664902549E-3,-5.697299726E-3,-3.705192730E-2
8.973959951E1,-7.317224983E-3,-9.054028429E-3,-6.457842886E-3
8.978959951E1,3.368705139E-2,3.581972048E-2,-5.543527752E-2
8.983959951E1,1.029965002E-2,7.895759307E-3,-7.257521618E-3
8.988959951E1,4.139339551E-2,4.279532656E-2,2.789514512E-2
8.993959951E1,5.773963872E-3,5.974217318E-3,7.049690187E-2
8.998959951E1,2.399997553E-3,8.829364087E-4,-1.634974498E-3
9.003959951E1,-2.250001300E-3,-2.582432004E-3,-3.113313578E-3
9.008959951E1,-3.902105987E-2,-3.728882968E-2,7.352649234E-3
9.013959951E1,4.984346218E-3,6.403275765E-3,1.731849648E-2
9.018959951E1,-2.837557904E-2,-2.639335394E-2,-7.502237801E-3
9.023959951E1,-1.053933986E-3,-1.064121723E-3,5.093507934E-4
9.028959951E1,-2.996050753E-4,-7.267333567E-4,2.444470534E-3
9.033959951E1,-2.996050753E-4,-1.099758549E-3,6.675216137E-4
9.038959951E1,-7.896651514E-4,-8.921583649E-4,-1.651158556E-3
9.043959951E1,9.726313874E-5,-4.468031693E-5,-1.200548839E-3
9.048959951E1,-9.730923921E-6,-1.610326581E-5,1.894943416E-4
9.053959951E1,-1.364868600E-3,-8.921583649E-4,6.867526681E-4
9.058959951E1,-2.996050753E-4,-2.234226558E-4,2.787112026E-4
9.063959951E1,9.665146936E-4,-2.233734122E-4,-9.056897252E-4
9.068959951E1,-2.402509563E-4,-4.361313768E-4,2.334162127E-5
9.073959951E1,-2.118316479E-4,-8.043851121E-4,-7.984567783E-4
9.078959951E1,5.416027270E-4,5.696231965E-4,3.467907663E-5
9.083959951E1,-1.192446332E-3,-7.197363302E-4,4.793685221E-4
9.088959951E1,-1.129119657E-3,-4.592943005E-4,-5.858949735E-4
9.093959951E1,2.095024101E-4,-8.921583649E-4,-9.816717356E-4
9.098959951E1,1.775312587E-3,1.498821657E-4,-3.366644378E-4
9.103959951E1,1.288309810E-3,-1.239950652E-3,4.793685221E-4
9.108959951E1,-6.455940660E-3,-7.992343046E-3,-5.738092004E-4
9.113959951E1,-2.621659078E-3,-1.491156523E-3,3.421290894E-4
9.118959951E1,1.415106701E-3,9.470225777E-4,4.793685221E-4
9.123959951E1,-1.385717653E-3,1.123282360E-3,-3.241415834E-5
9.128959951E1,3.529742826E-4,3.347930731E-3,3.468817100E-3
9.133959951E1,4.984906409E-3,7.249540649E-3,6.135683972E-3
9.138959951E1,-3.217380028E-3,-7.352204993E-3,2.235386055E-3
9.143959951E1,-1.195275038E-2,-1.173503604E-2,-8.103321888E-4
9.148959951E1,-1.460118033E-2,-1.227115467E-2,-6.395357777E-4
9.153959951E1,4.864632152E-3,3.614492947E-3,1.888306579E-3
9.158959951E1,-1.075726934E-2,-8.822153322E-3,5.072820932E-5
9.163959951E1,-3.318600357E-4,8.400599472E-5,2.496207366E-3
9.168959951E1,-1.035233494E-3,-2.033780096E-3,1.940901857E-3
9.173959951E1,-4.410040565E-4,-1.962720882E-3,4.767190549E-4
9.178959951E1,-4.643695895E-3,-5.904698744E-3,-9.269359871E-4
9.183959951E1,-1.616924535E-3,2.862724941E-4,-6.968603935E-3
9.188959951E1,-4.146758933E-3,-4.540714901E-3,1.282823738E-2
9.193959951E1,-1.605625264E-2,-1.550843101E-2,9.571283124E-3
9.198959951E1,-1.709108613E-2,-1.905287802E-2,8.035356179E-3
9.203959951E1,-1.475617848E-2,-1.427606773E-2,7.443908835E-4
9.208959951E1,-1.663132198E-2,-1.693150960E-2,3.531616414E-3
9.213959951E1,-3.067290597E-2,-2.961965464E-2,1.399299596E-2
9.218959951E1,-1.134650595E-2,-1.340966113E-2,-3.140803310E-4
9.223959951E1,-5.478866864E-3,-7.912801579E-3,1.686926233E-3
9.228959951E1,-6.326776464E-3,-3.596273484E-3,1.009606174E-3
9.233959951E1,6.121885963E-3,5.087244790E-4,5.778365303E-3
9.238959951E1,-6.214541849E-3,3.952783532E-3,5.672747269E-3
9.243959951E1,-2.693164535E-2,-2.304285206E-2,6.427180767E-2
9.248959951E1,-8.281278424E-4,-9.141728515E-4,2.866383875E-3
9.253959951E1,-8.056419902E-4,-7.295743562E-4,-8.383649401E-6
9.258959951E1,2.222524397E-2,2.139250375E-2,-3.510091826E-2
9.263959951E1,-1.941047050E-2,-1.876289211E-2,3.696812317E-2
9.268959951E1,-7.411542814E-3,-8.007027209E-3,1.383425202E-2
9.273959951E1,1.470898860E-3,2.836031606E-3,2.822288778E-3
9.278959951E1,-1.388448756E-3,-3.540137783E-3,6.579613779E-3
9.283959951E1,-2.305381931E-4,-1.688497374E-3,1.344774617E-3
9.288959951E1,-2.229805104E-4,-9.628122789E-4,8.482427802E-6
9.293959951E1,2.145591658E-3,-2.215714194E-4,-2.842649817E-3
9.298959951E1,8.229454979E-4,-7.345823105E-4,5.008693552E-4
9.303959951E1,-8.695544675E-4,-4.467030521E-4,-1.922920346E-3
9.308959951E1,6.071570795E-3,5.255810916E-3,-4.460988101E-3
9.313959951E1,1.988946926E-3,3.420362016E-3,-3.068264574E-3
9.318959951E1,4.135273863E-3,9.476586711E-4,-1.350107603E-3
9.323959951E1,3.854437033E-3,4.231328145E-3,-1.431291457E-3
9.328959951E1,-2.473316155E-3,-7.272215560E-3,-5.858949735E-4
9.333959951E1,6.116336677E-3,8.347083814E-3,6.197722978E-4
9.338959951E1,-4.121642560E-4,-1.533023547E-3,-3.889565356E-3
9.343959951E1,1.677484717E-3,-1.041392796E-3,-4.710323643E-3
9.348959951E1,1.093774848E-2,1.100245584E-2,-5.864780396E-3
9.353959951E1,-8.367311209E-3,-9.810012765E-3,-1.518667582E-2
9.358959951E1,1.403015666E-2,1.549393218E-2,-8.472017013E-3
9.363959951E1,-1.357021928E-2,-1.596537232E-2,-2.556810714E-2
9.368959951E1,1.546355430E-3,9.720975067E-4,-6.114169490E-3
9.373959951E1,2.722766018E-3,4.658188671E-3,1.216547657E-2
9.378959951E1,-3.192165121E-2,-3.099908866E-2,6.465922343E-5
9.383959951E1,1.079394296E-2,1.363003347E-2,-6.512865075E-4
9.388959951E1,-1.255414076E-2,-9.285273030E-3,1.955284923E-2
9.393959951E1,1.449226635E-3,8.749260567E-3,3.048131941E-3
9.398959951E1,2.082762076E-3,7.088411599E-3,-8.002901450E-3
9.403959951E1,-1.529693138E-3,7.446266245E-4,1.322023687E-3
9.408959951E1,-1.112874132E-3,5.309709813E-4,4.371917341E-3
9.413959951E1,-2.996050753E-4,5.227078218E-4,1.087849494E-3
9.418959951E1,1.863925718E-4,2.197395079E-4,-3.372629639E-3
9.423959951E1,-2.650418319E-4,-2.234637504E-4,5.001225509E-4
9.428959951E1,-3.343257122E-4,-9.238310158E-4,2.407668391E-3
9.433959951E1,-2.996050753E-4,-1.224884763E-4,-1.036580186E-3
9.438959951E1,2.095224336E-4,1.731051598E-4,-1.958812121E-3
9.443959951E1,9.683892131E-5,1.731051598E-4,1.645622426E-3
9.448959951E1,3.458145075E-4,1.731051598E-4,8.992125513E-4
9.453959951E1,3.691604361E-4,1.731051598E-4,-1.378796529E-3
9.458959951E1,2.331633586E-4,3.094554413E-4,-5.312665598E-5
9.463959951E1,7.656586822E-4,8.299204055E-4,4.793685221E-4
9.468959951E1,-1.518747304E-4,5.698180757E-4,-1.130338060E-3
9.473959951E1,-5.065882578E-5,1.731051598E-4,-8.117376710E-4
9.478959951E1,2.098793630E-4,1.731051598E-4,1.035147812E-3
9.483959951E1,-2.996050753E-4,1.731051598E-4,7.159467787E-4
9.488959951E1,9.716488421E-5,1.413049176E-6,-9.826647583E-4
9.493959951E1,4.937429912E-4,-9.881029837E-5,-1.426037168E-3
9.498959951E1,-7.854350843E-4,-3.127247328E-4,4.793685221E-4
9.503959951E1,-2.854907885E-3,-3.233964322E-3,4.793685221E-4
9.508959951E1,-4.358472768E-3,-6.210792810E-3,-1.118231448E-4
9.513959951E1,-6.955772173E-3,-9.749028832E-3,2.772795269E-4
9.518959951E1,-1.845198311E-2,-2.216591686E-2,1.222441904E-3
9.523959951E1,-2.556967176E-2,-2.606308460E-2,8.594659157E-4
9.528959951E1,-4.777417332E-2,-4.562050477E-2,8.757672040E-4
9.533959951E1,-6.307791173E-2,-6.007780880E-2,1.555592287E-3
9.538959951E1,-1.749314554E-2,-1.637268625E-2,5.209441879E-4
9.543959951E1,1.169733820E-3,1.080140239E-3,8.375773905E-5
9.548959951E1,-5.503898021E-3,-5.670825951E-3,2.360497601E-4
9.553959951E1,-9.679030627E-4,-6.485501071E-4,-1.889296691E-4
9.558959951E1,-1.220846083E-3,-8.921583649E-4,-5.858949735E-4
9.563959951E1,-1.379094087E-3,-1.288492582E-3,-6.037595449E-5
9.568959951E1,-1.364868600E-3,-1.553858165E-3,7.444961229E-4
9.573959951E1,-1.765984576E-3,-1.953039784E-3,1.007618266E-3
9.578959951E1,-6.919424050E-4,-8.921583649E-4,-5.858949735E-4
9.583959951E1,-7.114920300E-4,-8.921583649E-4,-5.704590003E-4
9.588959951E1,-9.839236736E-4,-8.921583649E-4,8.294841973E-5
9.593959951E1,-9.408686310E-4,-8.921583649E-4,4.793685221E-4
9.598959951E1,-1.063961536E-3,-1.193065546E-3,-2.178158029E-4
9.603959951E1,-2.996050753E-4,-9.877653793E-4,-5.858949735E-4
9.608959951E1,-2.996050753E-4,-8.921583649E-4,-5.858949735E-4
9.613959951E1,-8.322368376E-4,-8.921583649E-4,-5.326321116E-5
9.618959951E1,-1.364868600E-3,-8.921583649E-4,4.793685221E-4
9.623959951E1,4.282252863E-3,4.222331569E-3,9.392822394E-4
9.628959951E1,-1.683362015E-2,-1.675525680E-2,8.263386553E-5
9.633959951E1,5.087997764E-3,5.399191752E-3,-1.057117712E-3
9.638959951E1,1.797062159E-1,2.663795650E-1,-2.500762604E-2
9.643959951E1,6.082984805E-1,1.770526290E0,-1.536061615E-1
9.648959951E1,-7.299276590E-1,3.485659957E-1,-9.560343809E-3
9.653959951E1,-7.046371102E-1,3.289728761E-1,1.144389659E-1
9.658959951E1,-5.772166252E-1,8.419410884E-2,8.982564509E-2
9.663959951E1,-8.371705413E-1,1.510259956E-1,1.803272814E-1
9.668959951E1,-6.694517732E-1,1.208038479E-1,1.472936422E-1
9.673959951E1,-1.042320132E0,1.699310094E-1,2.231339663E-1
9.678959951E1,-1.466233373E0,2.248805314E-1,3.485463262E-1
9.683959951E1,-1.612336516E0,2.464143485E-1,5.542763472E-1
9.688959951E1,-1.176448226E0,7.295517921E-1,9.747979641E-1
9.693959951E1,-5.094234347E-1,1.758678913E0,6.515483260E-1
9.698959951E1,-1.240387797E0,1.084723115E0,8.379105330E-1
9.703959951E1,1.040807605E0,2.386811972E0,1.123336673E0
9.708959951E1,1.926321268E0,2.815960646E0,7.981781960E-1
9.713959951E1,4.828344345E0,5.250402927E0,9.070143700E-1
9.718959951E1,5.515426159E0,4.281391144E0,-2.332178801E-1
9.723959951E1,9.782939553E-1,2.545369387E0,-7.273114324E-1
9.728959951E1,-3.159766912E0,1.478091240E0,-7.546595335E-1
9.733959951E1,-4.302508354E0,6.796445251E-1,1.625464559E-1
9.738959951E1,-3.171375513E0,1.043996572E0,6.501291990E-1
9.743959951E1,-7.223746777E-1,8.517320752E-1,8.805919886E-1
9.748959951E1,1.769364357E0,4.914745092E-1,6.769724488E-1
9.753959951E1,2.710975647E0,3.995018601E-1,6.356049776E-1
9.758959951E1,2.302500010E0,-2.826266587E-1,2.925179005E-1
9.763959951E1,2.265947580E0,-9.356940985E-1,-9.818937629E-2
9.768959951E1,2.285751820E0,-6.230868697E-1,-4.644645452E-1
9.773959951E1,1.936601639E0,-6.857217550E-1,-6.714990139E-1
9.778959951E1,1.601919889E0,-3.220801353E-1,-6.056540608E-1
9.783959951E1,1.227032065E0,-1.081129164E-1,-5.748898983E-1
9.788959951E1,7.689210176E-1,2.594179809E-1,-5.250668526E-1
9.793959951E1,3.346120119E-1,1.420920193E-1,-1.316906959E-1
9.798959951E1,-4.136813339E-3,-7.894934714E-2,1.270882338E-1
9.803959951E1,-4.324314296E-1,-4.353479743E-1,-6.214318331E-3
9.808959951E1,-9.894352555E-1,-4.364301562E-1,-1.996700615E-1
9.813959951E1,-1.595572472E0,-3.353564814E-2,-4.724277854E-1
9.818959951E1,-2.137402534E0,2.755075097E-1,-8.487101793E-1
9.823959951E1,-2.336212873E0,4.108867049E-1,-1.501175910E-1
9.828959951E1,-2.217591524E0,4.723464549E-1,6.860824823E-1
9.833959951E1,-2.292996645E0,1.583383828E-1,9.125182629E-1
9.838959951E1,-2.457845688E0,-4.267455935E-1,1.023100853E0
9.843959951E1,-2.205851078E0,-5.333481431E-1,9.137800932E-1
9.848959951E1,-1.638261080E0,-7.001603842E-1,5.454471111E-1
9.853959951E1,-1.213692069E0,-3.019373417E-1,1.577835083E-1
9.858959951E1,-1.120834231E0,-3.521099985E-1,-1.032852083E-1
9.863959951E1,-1.097376704E0,-7.181421518E-1,4.379511997E-2
9.868959951E1,-1.029489756E0,-4.967093468E-1,4.032352567E-1
9.873959951E1,-9.100404382E-1,-7.285220623E-1,4.802490473E-1
9.878959951E1,-7.854232788E-1,-5.385624170E-1,1.424348652E-1
9.883959951E1,-6.877539754E-1,-3.846898973E-1,-1.997051835E-1
9.888959951E1,-6.237462163E-1,-7.221297175E-2,-4.298127443E-2
