"Time (s)","Acceleration x (m/s^2)","Acceleration y (m/s^2)","Acceleration z (m/s^2)"
6.408402100E-2,4.129326344E0,-5.612961575E-2,8.979287148E0
1.140840210E-1,3.973620176E0,-2.498839423E-2,8.996055603E0
1.640840210E-1,3.940083504E0,-1.301100012E-2,9.051151276E0
2.140840210E-1,4.093394279E0,-5.373413488E-2,8.945750237E0
2.640840210E-1,4.114953518E0,-6.092057377E-2,8.912213326E0
3.140840210E-1,4.019134521E0,-4.415222257E-2,8.996055603E0
3.640840210E-1,3.964038134E0,-6.571152806E-2,8.991264343E0
4.140840210E-1,4.002366066E0,6.152828224E-3,9.020009995E0
4.640840210E-1,4.026320934E0,-3.696578741E-2,8.861908913E0
5.140840210E-1,4.081417084E0,-9.445726871E-2,8.928981781E0
5.640840210E-1,3.966433764E0,-3.217482939E-2,9.017614365E0
6.140840210E-1,3.990388393E0,-8.220043033E-3,9.000845909E0
6.640840210E-1,4.069439411E0,-7.529344410E-2,8.991264343E0
7.140840210E-1,4.088603497E0,-4.894318059E-2,8.976891518E0
7.640840210E-1,4.059857368E0,-3.457030654E-2,8.905027390E0
8.140840210E-1,3.987993002E0,-5.852509290E-2,9.005637169E0
8.640840210E-1,3.976015568E0,-1.061552204E-2,9.031987190E0
9.140840210E-1,4.033507347E0,-4.415222257E-2,8.940958977E0
9.640840210E-1,4.131721973E0,-9.445726871E-2,8.897840500E0
1.014084021E0,4.038298130E0,-4.654769972E-2,8.952937126E0
1.064084021E0,4.019134521E0,-1.540647820E-2,9.012824059E0
1.114084021E0,4.143699169E0,-1.208075359E-1,9.053546906E0
1.164084021E0,4.105371475E0,-5.824564490E-3,9.017614365E0
1.214084021E0,4.007156849E0,-2.019743621E-2,8.964914322E0
1.264084021E0,4.083812237E0,-3.217482939E-2,9.118225098E0
1.314084021E0,3.971224546E0,-3.457030654E-2,9.084688187E0
1.364084021E0,3.882591963E0,-7.529344410E-2,8.914608955E0
1.414084021E0,3.978411198E0,-7.289796323E-2,8.931377411E0
1.464084021E0,4.047880173E0,8.041266352E-2,8.382812500E0
1.514084021E0,4.110162735E0,5.166692287E-2,8.976891518E0
1.564084021E0,4.047880173E0,-1.327849180E-1,8.988868713E0
1.614084021E0,4.079021454E0,-9.924823046E-2,8.761298180E0
1.664084021E0,4.023925304E0,-1.974628419E-1,9.031987190E0
1.714084021E0,4.234727383E0,-2.980729640E-1,7.987559319E0
1.764084021E0,3.942478895E0,2.052569762E-2,9.079896927E0
1.814084021E0,3.923315048E0,-1.543442309E-1,9.039174080E0
1.864084021E0,4.062252998E0,-7.529344410E-2,8.828372002E0
1.914084021E0,4.119744778E0,4.421299100E-1,1.041896915E1
1.964084021E0,4.447925091E0,2.361187786E-1,1.145142078E1
2.014084021E0,5.164173126E0,1.307177246E-1,9.618880272E0
2.064084021E0,9.387401581E0,5.523219705E-1,7.050272822E-2
2.114084021E0,6.807471275E0,1.762318164E-1,5.517820835E0
2.164084021E0,5.458817005E0,5.166692287E-2,8.823580742E0
2.214084021E0,6.929640770E0,-5.256434083E-1,7.189865112E0
2.264084021E0,8.783740997E0,-1.898252606E0,9.831800461E-1
2.314084021E0,1.259494781E1,2.720509470E-1,7.268638611E-1
2.364084021E0,1.139002228E1,-6.861404777E-1,5.752577782E0
2.414084021E0,1.243924141E1,-1.855134010E0,2.662410498E0
2.464084021E0,1.184037209E1,-1.095767260E0,-6.505362988E-1
2.514084021E0,1.207752419E1,-1.958139539E0,1.718591928E0
2.564084021E0,1.130857563E1,-1.615586162E0,3.000173092E0
2.614084021E0,9.373028755E0,-1.354478955E0,1.526953578E0
2.664084021E0,8.350159645E0,-5.133865774E-2,8.538241982E-1
2.714084021E0,8.038747787E0,-1.143676877E0,7.891463041E-1
2.764084021E0,8.434000969E0,-1.119722009E0,6.573949456E-1
2.814084021E0,9.195763588E0,-1.543721795E0,1.090976596E0
2.864084021E0,8.893933296E0,-8.154962659E-1,1.540671289E-2
2.914084021E0,9.282000542E0,-4.945021868E-1,9.951574802E-1
2.964084021E0,8.699899673E0,-5.133865774E-2,5.133889616E-2
3.014084021E0,9.126295090E0,1.834182441E-1,-1.642264485E0
3.064084021E0,8.371719360E0,6.337682009E-1,2.573500574E-1
3.114084021E0,7.411131859E0,1.155982494E0,-1.247010469E0
3.164084021E0,7.741708279E0,1.275756478E0,1.301124692E-2
3.214084021E0,8.738226891E0,1.682987809E0,-6.625136733E-1
3.264084021E0,9.155040741E0,7.727059722E-1,-6.960504055E-1
3.314084021E0,8.441187859E0,9.212256670E-1,-6.843502820E-2
3.364084021E0,8.381300926E0,1.476976633E0,-7.439599633E-1
3.414084021E0,9.516757965E0,9.188301563E-1,7.172819376E-1
3.464084021E0,1.071928787E1,5.642993450E-1,3.292143941E-1
3.514084021E0,1.088936710E1,2.457007021E-1,1.047858000E0
3.564084021E0,1.058753681E1,5.619038939E-1,1.141281605E0
3.614084021E0,1.003178596E1,6.768868566E-1,1.232309818E0
3.664084021E0,1.012041855E1,1.108072996E0,-2.073727697E-1
3.714084021E0,1.079594326E1,9.571578503E-1,6.238582730E-1
3.764084021E0,1.052764988E1,1.206287622E0,-4.708753824E-1
3.814084021E0,1.014197731E1,9.475759268E-1,1.296987653E0
3.864084021E0,8.927470207E0,1.685383320E0,-2.681901932E0
3.914084021E0,8.077075005E0,1.172750950E0,6.549994946E-1
3.964084021E0,8.642408371E0,9.260166287E-1,-5.906493068E-1
4.014084021E0,8.937051773E0,6.361637115E-1,3.795194626E-1
4.064084021E0,9.040057182E0,8.996663690E-1,2.063540936E0
4.114084021E0,8.989752769E0,1.426671624E0,2.977959812E-2
4.164084021E0,1.053723145E1,3.870339096E-1,-6.050221920E-1
4.214084021E0,8.994543076E0,6.792823076E-1,-6.404475689E0
4.264084021E0,9.691627502E0,1.989609003E0,1.752128601E0
4.314084021E0,9.207740784E0,2.015959263E0,5.519939065E-1
4.364084021E0,1.049650860E1,1.697360754E0,-7.463554144E-1
4.414084021E0,1.005094910E1,1.908162832E0,6.573949456E-1
4.464084021E0,9.732350349E0,-2.118357122E-1,-4.421296716E-1
4.514084021E0,1.120317459E1,1.328456998E0,-3.053201199E0
4.564084021E0,1.123431587E1,1.623100877E0,1.711128205E-1
4.614084021E0,9.720373154E0,1.460208297E0,7.819598913E-1
4.664084021E0,1.080792046E1,-4.897112250E-1,2.439630985E0
4.714084021E0,7.916577816E0,1.330852509E0,-1.381157279E0
4.764084021E0,1.059472275E1,7.032371163E-1,8.202875257E-1
4.814084021E0,9.353865623E0,8.613386750E-1,-9.882988334E-1
4.864084021E0,9.523943901E0,1.503326893E0,1.167631865E0
4.914084021E0,1.042943478E1,1.536863685E0,7.867508531E-1
4.964084021E0,1.049171734E1,1.103281975E0,-5.139940381E-1
5.014084021E0,9.900033951E0,1.723711014E0,7.364457846E-1
5.064084021E0,8.810091972E0,1.977631688E0,3.771239817E-1
5.114084021E0,9.178995132E0,1.146400690E0,-9.164344668E-1
5.164084021E0,9.334701538E0,1.419485211E0,-4.541070461E-1
5.214084021E0,9.667673111E0,1.850671291E0,-6.529317498E-1
5.264084021E0,9.576644897E0,1.790784359E0,-1.402716637E0
5.314084021E0,9.456871033E0,2.142919779E0,-1.098490834E0
5.364084021E0,9.198159218E0,1.980027199E0,-1.812343478E0
5.414084021E0,9.828169823E0,1.306897640E0,-3.141834021E0
5.464084021E0,1.048453140E1,7.535421848E-1,-4.674940109E0
5.514084021E0,9.856915474E0,1.381157517E0,-5.762764812E-1
5.564084021E0,8.738226891E0,1.759643197E0,-6.888639331E-1
5.614084021E0,9.291583061E0,3.031921685E-1,-3.450850725E0
5.664084021E0,8.937051773E0,6.697003841E-1,-4.468928814E0
5.714084021E0,8.987357140E0,8.541522622E-1,-1.826716304E0
5.764084021E0,8.915493011E0,1.551236510E0,-2.607642174E0
5.814084021E0,9.444893837E0,1.642264724E0,-2.310602903E0
5.864084021E0,9.219717979E0,1.357202768E0,-2.602851152E0
5.914084021E0,8.891537666E0,1.527281761E0,-2.732207060E0
5.964084021E0,9.212532043E0,5.331581235E-1,-2.598060369E0
6.014084021E0,9.332305908E0,9.068527818E-1,-3.719144344E0
6.064084021E0,9.047244072E0,1.208683133E0,-3.767053843E0
6.114084021E0,9.765887260E0,2.080637217E0,-2.844794512E0
6.164084021E0,9.583830833E0,1.220660448E0,-2.799280405E0
6.214084021E0,8.886746407E0,-7.768892497E-2,-3.994624138E0
6.264084021E0,8.424419403E0,3.079831302E-1,-4.617448807E0
6.314084021E0,8.340578079E0,4.038022459E-1,-4.107211590E0
6.364084021E0,8.505866051E0,1.522770226E-1,-3.757471800E0
6.414084021E0,9.741932869E0,4.253615737E-1,-4.059302330E0
6.464084021E0,1.030966091E1,4.085932076E-1,-3.764658451E0
6.514084021E0,9.368238449E0,7.463557124E-1,-4.181471825E0
6.564084021E0,9.538316727E0,-5.639710426E-1,-4.605471134E0
6.614084021E0,8.968193054E0,-1.261055350E0,-5.757696629E0
6.664084021E0,8.505866051E0,-1.371247292E0,-3.781426668E0
6.714084021E0,7.964487553E0,-7.675867081E-1,-1.879416823E0
6.764084021E0,7.588397503E0,7.152144909E-1,-2.298625469E0
6.814084021E0,9.092758179E0,5.885335803E-2,-2.392049074E0
6.864084021E0,9.258046150E0,-3.603554070E-1,-4.413833141E0
6.914084021E0,9.349074364E0,-7.843550444E-1,-6.651209831E0
6.964084021E0,9.976689339E0,-5.831348896E-1,-2.344139576E0
7.014084021E0,8.675944328E0,9.718101472E-2,-2.875935793E0
7.064084021E0,8.874769211E0,-2.214176208E-1,-3.311913013E0
7.114084021E0,7.928555489E0,-6.933268905E-1,-4.828250885E0
7.164084021E0,8.635221481E0,-1.744941950E0,-3.644884348E0
7.214084021E0,8.053120613E0,-1.375758797E-1,-3.874850273E0
7.264084021E0,8.568148613E0,-8.247987926E-2,-3.999415398E0
7.314084021E0,9.190972328E0,-7.316545248E-1,-4.801900387E0
7.364084021E0,9.164622307E0,2.504916191E-1,-5.024680138E0
7.414084021E0,8.814882278E0,8.876889348E-1,-3.563438177E0
7.464084021E0,8.596894264E0,4.421299100E-1,-5.280996323E0
7.514084021E0,9.262837410E0,-4.681519270E-1,-5.994848728E0
7.564084021E0,8.793323517E0,-4.322197437E-1,-4.370714188E0
7.614084021E0,8.668758392E0,1.474860758E-1,-2.952591181E0
7.664084021E0,9.090362549E0,-1.615306586E-1,-4.167098522E0
7.714084021E0,8.865187645E0,-2.717227042E-1,-5.206736565E0
7.764084021E0,8.611267090E0,-1.061552204E-2,-4.157516956E0
7.814084021E0,8.302249908E0,-1.974628419E-1,-1.424275875E0
7.864084021E0,9.346678734E0,-3.411915600E-1,-3.113088131E0
7.914084021E0,8.723854065E0,-8.487536013E-2,-2.717834234E0
7.964084021E0,8.575334549E0,4.927144200E-2,-2.375280857E0
8.014084021E0,8.896328926E0,-1.687171012E-1,-4.960001945E0
8.064084021E0,9.440102577E0,-1.711125821E-1,-4.215008259E0
8.114084021E0,8.546588898E0,1.105677485E0,-2.054286718E0
8.164084021E0,9.123899460E0,8.206155300E-1,-2.358512402E0
8.214084021E0,9.761096954E0,7.774969339E-1,-5.228295803E0
8.264084021E0,8.853210449E0,6.265817881E-1,-2.820839882E0
8.314084021E0,7.607561111E0,2.576780617E-1,-1.591959476E0
8.364084021E0,7.875854969E0,3.511017263E-1,-4.246149540E0
8.414084021E0,8.800509453E0,8.900844455E-1,-5.259437084E0
8.464084021E0,9.049639702E0,1.637473702E0,-2.885517836E0
8.514084021E0,7.765662670E0,3.568229437E0,-4.076070786E0
8.564084021E0,9.679650307E0,2.068659782E0,-4.248545170E0
8.614084021E0,1.074324226E1,1.141609669E0,-6.584136486E0
8.664084021E0,8.752599716E0,1.615914464E0,-4.200635433E0
8.714084021E0,8.714272499E0,1.924931169E0,1.555699348E0
8.764084021E0,8.045933723E0,2.681902409E0,-5.872679234E0
8.814084021E0,9.579040527E0,1.709338069E0,-5.046239376E0
8.864084021E0,9.171809196E0,2.195620298E0,-5.012702465E0
8.914084021E0,8.390882492E0,2.840003967E0,-3.647279978E0
8.964084021E0,8.386092186E0,2.554942131E0,-1.704546928E0
9.014084021E0,8.635221481E0,2.286648512E0,-3.522715092E0
9.064084021E0,8.774159431E0,2.092614651E0,-4.016183376E0
9.114084021E0,8.484306335E0,1.079327226E0,-2.547755241E0
9.164084021E0,8.953820229E0,8.278020024E-1,-2.763348341E0
9.214084021E0,9.349074364E0,7.463557124E-1,-2.648365259E0
9.264084021E0,9.305955887E0,4.612937570E-1,-3.177766085E0
9.314084021E0,9.253254890E0,2.984012067E-1,-3.982646942E0
9.364084021E0,8.925074577E0,-3.316096663E-1,-2.705856800E0
9.414084021E0,8.443583488E0,-4.945021868E-1,-3.103506327E0
9.464084021E0,1.052046299E1,-1.510185122E0,-3.929946423E0
9.514084021E0,9.353865623E0,-5.160614848E-1,-4.816273212E0
9.564084021E0,8.623244286E0,-5.424117446E-1,-2.243529558E0
9.614084021E0,9.131085396E0,-1.759035289E-1,-3.460432529E0
9.664084021E0,9.442498207E0,3.798474669E-1,-3.958692074E0
9.714084021E0,8.604080200E0,-7.529344410E-2,-2.066264153E0
9.764084021E0,9.183786392E0,-1.423668414E-1,-4.571934700E0
9.814084021E0,8.685526848E0,-4.777338505E-1,-4.916883469E0
9.864084021E0,8.206431389E0,-8.993380666E-1,-4.334782124E0
9.914084021E0,8.774159431E0,-8.921515942E-1,-5.257041454E0
9.964084021E0,8.479515076E0,-6.166715622E-1,-4.859392166E0
1.001408402E1,8.383696556E0,-8.322646618E-1,-4.332386971E0
1.006408402E1,8.364532471E0,-9.927617311E-1,-4.691708565E0
1.011408402E1,8.484306335E0,-8.825696707E-1,-4.969583988E0
1.016408402E1,8.345368385E0,-1.038275838E0,-4.586307526E0
1.021408402E1,8.568148613E0,-1.076603413E0,-5.204340935E0
1.026408402E1,8.299854279E0,-1.019111991E0,-5.185177326E0
1.031408402E1,8.230385780E0,-1.165236115E0,-4.555166245E0
1.036408402E1,8.242362976E0,-1.045462251E0,-5.319324017E0
1.041408402E1,8.299854279E0,-1.196377397E0,-4.895324230E0
1.046408402E1,8.115403175E0,-1.239495993E0,-4.842623711E0
1.051408402E1,8.235177040E0,-1.397597551E0,-6.064317703E0
1.056408402E1,8.139357567E0,-1.476648331E0,-5.338487625E0
1.061408402E1,8.266318321E0,-1.565281034E0,-5.731346130E0
1.066408402E1,8.065097809E0,-1.373642802E0,-5.520544052E0
1.071408402E1,8.021979332E0,-1.294592023E0,-5.144454002E0
1.076408402E1,8.122589111E0,-1.191586375E0,-5.012702465E0
1.081408402E1,7.988442421E0,-1.004739165E0,-5.769673824E0
1.086408402E1,7.978860378E0,-1.215541244E0,-5.453470707E0
1.091408402E1,8.048329353E0,-1.555699110E0,-5.007911682E0
1.096408402E1,7.981256008E0,-1.335315108E0,-5.074985027E0
1.101408402E1,8.117797852E0,-1.208354831E0,-5.218713760E0
1.106408402E1,7.801595211E0,-9.304792881E-1,-5.237877846E0
1.111408402E1,7.873459339E0,-9.137108922E-1,-5.685832024E0
1.116408402E1,8.007605553E0,-1.076603413E0,-6.356565952E0
1.121408402E1,7.696194172E0,-1.205959320E0,-5.695414066E0
1.126408402E1,7.832736492E0,-1.112535596E0,-5.860702038E0
1.131408402E1,7.770453930E0,-1.364060879E0,-5.424725056E0
1.136408402E1,7.667448521E0,-1.452693582E0,-4.528816223E0
1.141408402E1,7.851900101E0,-1.184399962E0,-5.899029732E0
1.146408402E1,7.729730606E0,-1.004739165E0,-5.954125881E0
1.151408402E1,7.600374699E0,-8.945471048E-1,-5.733741760E0
1.156408402E1,7.775244713E0,-8.322646618E-1,-6.299074650E0
1.161408402E1,7.526114941E0,-9.208973646E-1,-5.738532543E0
1.166408402E1,7.770453930E0,-1.217936635E0,-6.069108486E0
1.171408402E1,7.516532898E0,-1.193981886E0,-5.563662529E0
1.176408402E1,7.660261631E0,-1.246682405E0,-5.700204849E0
1.181408402E1,7.641098022E0,-1.186795473E0,-5.609176636E0
1.186408402E1,7.614747524E0,-1.023902893E0,-5.592408657E0
1.191408402E1,7.631515980E0,-7.076997757E-1,-5.949334621E0
1.196408402E1,7.806385994E0,-9.352701902E-1,-6.208046436E0
1.201408402E1,7.648284435E0,-1.090976357E0,-5.752905369E0
1.206408402E1,7.710566998E0,-8.729877472E-1,-6.140973091E0
1.211408402E1,7.609956741E0,-8.178917766E-1,-5.796024323E0
1.216408402E1,7.516532898E0,-1.033484817E0,-6.131391048E0
1.221408402E1,7.619538784E0,-1.172422647E0,-5.776860237E0
1.226408402E1,7.648284435E0,-1.177213550E0,-5.781651497E0
1.231408402E1,7.736917019E0,-9.759933352E-1,-6.335006714E0
1.236408402E1,7.638702393E0,-9.208973646E-1,-5.858306408E0
1.241408402E1,7.739312649E0,-9.089199305E-1,-5.851119995E0
1.246408402E1,7.583606720E0,-7.963324785E-1,-5.831956387E0
1.251408402E1,7.715357780E0,-6.430218220E-1,-6.045154095E0
1.256408402E1,7.586001873E0,-8.226827383E-1,-5.743323803E0
1.261408402E1,7.674634933E0,-5.735529661E-1,-6.131391048E0
1.266408402E1,7.518928528E0,-4.801293314E-1,-5.314532757E0
1.271408402E1,7.499764919E0,-3.891011477E-1,-5.501380444E0
1.276408402E1,7.650680065E0,8.759909868E-2,-6.078690529E0
1.281408402E1,7.595583916E0,8.280814439E-2,-6.495503902E0
1.286408402E1,7.396759033E0,-2.453724146E-1,-6.390102863E0
1.291408402E1,6.972759724E0,-2.977934852E-2,-6.088272572E0
1.296408402E1,7.432691574E0,-1.854854524E-1,-7.868113041E0
1.301408402E1,7.099720001E0,-4.585700035E-1,-6.744633675E0
1.306408402E1,6.944013596E0,-7.076997757E-1,-6.289492607E0
1.311408402E1,7.027855396E0,-4.894318059E-2,-7.369853497E0
1.316408402E1,7.382386208E0,3.079831302E-1,-5.549289703E0
1.321408402E1,7.782431126E0,-1.998583227E-1,-5.288182735E0
1.326408402E1,7.715357780E0,7.391692996E-1,-5.666668415E0
1.331408402E1,7.811176777E0,1.007462859E0,-6.176905155E0
1.336408402E1,7.212307453E0,1.232637882E0,-6.770983696E0
1.341408402E1,7.334476948E0,1.189519286E0,-8.093288422E0
1.346408402E1,7.923764706E0,7.703105211E-1,-6.634441853E0
1.351408402E1,7.887832165E0,2.075846195E0,-2.459122658E0
1.356408402E1,8.012396812E0,2.329766989E0,-3.115483761E0
1.361408402E1,8.723854065E0,2.030332327E0,-4.646194458E0
1.366408402E1,8.359741211E0,2.198015690E0,-7.832180500E0
1.371408402E1,8.347764015E0,1.927326679E0,-5.400770187E0
1.376408402E1,7.655470848E0,2.301021338E0,-3.848500252E0
1.381408402E1,7.770453930E0,1.774016023E0,-4.722849846E0
1.386408402E1,7.365617752E0,1.191914678E0,-5.230691433E0
1.391408402E1,6.723629951E0,2.027936697E0,-5.216318130E0
1.396408402E1,6.330771446E0,1.872230649E0,-4.231776714E0
1.401408402E1,5.858861923E0,2.059077978E0,-6.330215931E0
1.406408402E1,5.763042927E0,2.061473370E0,-6.909921646E0
1.411408402E1,6.472104549E0,1.687778831E0,-6.502690315E0
1.416408402E1,6.766748428E0,1.790784359E0,-7.386621952E0
1.421408402E1,7.087742329E0,1.809948206E0,-6.648814678E0
1.426408402E1,7.899809837E0,9.499713778E-1,-7.269243240E0
1.431408402E1,7.669843674E0,7.295873761E-1,-6.557786465E0
1.436408402E1,8.357346535E0,8.254064918E-1,-5.237877846E0
1.441408402E1,6.625415325E0,1.898580909E0,-8.263367653E0
1.446408402E1,7.382386208E0,1.026626706E0,-7.877694607E0
1.451408402E1,7.478205681E0,1.144005179E0,-8.134011269E0
1.456408402E1,7.770453930E0,1.361993670E0,-6.974599361E0
1.461408402E1,7.861482143E0,1.230242372E0,-6.497899532E0
1.466408402E1,7.308126450E0,1.050581455E0,-6.138577461E0
1.471408402E1,6.967968464E0,4.325479865E-1,-5.470239162E0
1.476408402E1,6.845798969E0,-5.232478976E-1,-6.064317703E0
1.481408402E1,7.121279240E0,-1.586840391E0,-5.994848728E0
1.486408402E1,6.939222813E0,-9.352701902E-1,-6.476340294E0
1.491408402E1,7.068578720E0,-1.634750009E0,-6.267933369E0
1.496408402E1,6.915267944E0,-1.625168085E0,-6.826079845E0
1.501408402E1,6.927245617E0,-1.263450742E0,-6.093063354E0
1.506408402E1,7.135652065E0,-1.433529735E0,-6.191277981E0
1.511408402E1,7.269798756E0,-9.759933352E-1,-6.270328999E0
1.516408402E1,7.521324158E0,-6.621856689E-1,-5.345674038E0
1.521408402E1,7.643493652E0,-7.220726013E-1,-6.282306194E0
1.526408402E1,7.217098236E0,-5.136659741E-1,-6.404475689E0
1.531408402E1,7.320104122E0,-6.981178522E-1,-5.870284081E0
1.536408402E1,7.300940037E0,-6.406263709E-1,-6.102645397E0
1.541408402E1,7.164397717E0,-4.154514074E-1,-6.375730038E0
1.546408402E1,7.257821560E0,-7.939369678E-1,-6.028385639E0
1.551408402E1,7.269798756E0,-1.229914069E0,-6.744633675E0
1.556408402E1,6.975154877E0,-8.586149216E-1,-7.868113041E0
1.561408402E1,6.984736919E0,-7.076997757E-1,-6.373334408E0
1.566408402E1,6.848194599E0,-6.166715622E-1,-6.416452885E0
1.571408402E1,6.881731510E0,-7.340500355E-1,-7.374644279E0
1.576408402E1,6.618228912E0,-8.538239598E-1,-6.236792088E0
1.581408402E1,6.783516884E0,-7.364454865E-1,-6.797334194E0
1.586408402E1,6.579901218E0,-6.118806005E-1,-6.998554230E0
1.591408402E1,6.330771446E0,-7.651912570E-1,-6.071504116E0
1.596408402E1,6.596669197E0,-8.442420363E-1,-6.917108059E0
1.601408402E1,6.630206108E0,-5.280388594E-1,-7.163842201E0
1.606408402E1,5.911562443E0,-2.884910405E-1,-6.591322899E0
1.611408402E1,6.112782478E0,-5.807393789E-1,-6.059526920E0
1.616408402E1,5.969054222E0,1.738363355E-1,-7.702825069E0
1.621408402E1,6.194229126E0,1.151191592E0,-7.537537098E0
1.626408402E1,6.014567852E0,9.811125994E-1,-6.081086159E0
1.631408402E1,6.390658379E0,1.417089701E0,-9.487457275E0
1.636408402E1,6.654160976E0,1.596750617E0,-8.363977432E0
1.641408402E1,6.052895546E0,1.881812572E0,-8.241807938E0
1.646408402E1,5.755856514E0,1.826716542E0,-7.209356308E0
1.651408402E1,6.218183994E0,1.316479564E0,-7.726779938E0
1.656408402E1,5.739088058E0,1.366784692E0,-8.141198158E0
1.661408402E1,5.595359325E0,1.235033393E0,-7.204565525E0
1.666408402E1,5.267179012E0,1.378762007E0,-7.115932941E0
1.671408402E1,6.110387325E0,1.335643411E0,-8.845468521E0
1.676408402E1,6.675720215E0,1.809948206E0,-9.810846329E0
1.681408402E1,6.714047909E0,1.867439628E0,-7.583051205E0
1.686408402E1,6.599064827E0,1.924931169E0,-7.163842201E0
1.691408402E1,6.939222813E0,2.078241825E0,-1.039534378E1
1.696408402E1,7.003900528E0,2.154897213E0,-5.908611774E0
1.701408402E1,7.118883610E0,2.198015690E0,-5.551685333E0
1.706408402E1,6.757166386E0,2.655552149E0,-3.472409964E0
1.711408402E1,6.778725624E0,3.505947113E0,-1.627891660E0
1.716408402E1,7.727335453E0,3.086738348E0,-3.592183828E0
1.721408402E1,8.129776001E0,3.666444063E0,-3.268794298E0
1.726408402E1,8.192057610E0,4.155121803E0,-3.247235060E0
1.731408402E1,1.558450508E1,1.268062973E1,9.376659989E-1
1.736408402E1,6.831426144E0,6.634441853E0,-5.379487872E-1
1.741408402E1,8.096239090E0,6.797334671E0,4.513838291E-1
1.746408402E1,8.951424599E0,5.616363525E0,-5.499262214E-1
1.751408402E1,8.853210449E0,4.198240280E0,-2.205201864E0
1.756408402E1,8.515447617E0,5.254646301E0,-7.008413672E-1
1.761408402E1,8.438792229E0,4.588703156E0,-1.829111695E0
1.766408402E1,8.829255104E0,7.319548607E0,-2.145592123E-1
1.771408402E1,7.547674179E0,5.355256557E0,1.191586614E0
1.776408402E1,7.892623425E0,5.384002209E0,9.017338157E-1
1.781408402E1,8.537007332E0,5.132476807E0,-2.073727697E-1
1.786408402E1,7.971673965E0,5.036657810E0,-1.043672115E-1
1.791408402E1,7.959696770E0,5.022284985E0,-1.572795630E0
1.796408402E1,7.835131645E0,5.721764565E0,-8.805022836E-1
1.801408402E1,7.739312649E0,6.045154095E0,-2.588478327E0
1.806408402E1,8.194453239E0,4.155121803E0,-4.418623924E0
1.811408402E1,7.748894691E0,4.049720764E0,-7.400994778E0
1.816408402E1,7.681821346E0,2.463913918E0,-6.862011909E0
1.821408402E1,7.686612129E0,1.956072330E0,-8.016633034E0
1.826408402E1,6.963177681E0,1.797970772E0,-6.718283176E0
1.831408402E1,6.376285553E0,7.295873761E-1,-6.380520821E0
1.836408402E1,6.472104549E0,-3.429085948E-3,-6.890758038E0
1.841408402E1,6.452940464E0,-3.675418198E-1,-6.560181618E0
1.846408402E1,5.937912941E0,-9.448521137E-1,-6.445199013E0
1.851408402E1,6.254116058E0,-1.541326284E0,-7.420158386E0
1.856408402E1,6.290048122E0,-1.792851567E0,-7.738757133E0
1.861408402E1,6.076850414E0,-1.812015414E0,-7.233311176E0
1.866408402E1,6.402635574E0,-1.857529402E0,-7.568678379E0
1.871408402E1,6.402635574E0,-1.653913736E0,-7.123119354E0
1.876408402E1,6.357121468E0,-1.316151261E0,-7.226124763E0
1.881408402E1,6.462522507E0,-1.464671016E0,-6.701515198E0
1.886408402E1,6.606251240E0,-1.459879994E0,-6.438012600E0
1.891408402E1,6.534387112E0,-1.165236115E0,-6.232001305E0
1.896408402E1,6.462522507E0,-1.778478622E0,-6.327820301E0
1.901408402E1,6.867358685E0,-2.022817373E0,-7.676474571E0
1.906408402E1,6.488873005E0,-1.924602866E0,-7.218938351E0
1.911408402E1,6.191833496E0,-1.843156576E0,-6.830871105E0
1.916408402E1,6.263697624E0,-2.015630960E0,-7.211751938E0
1.921408402E1,6.577505589E0,-2.233619690E0,-6.835661888E0
1.926408402E1,6.155901432E0,-1.876693249E0,-7.065627575E0
1.931408402E1,6.323585033E0,-1.946162105E0,-6.502690315E0
1.936408402E1,6.611042023E0,-1.979698896E0,-7.206961155E0
1.941408402E1,6.486477375E0,-1.646727324E0,-7.216542721E0
1.946408402E1,6.428986073E0,-1.613190651E0,-6.756610870E0
1.951408402E1,6.421799660E0,-1.941371202E0,-7.082396030E0
1.956408402E1,6.500850201E0,-2.039585829E0,-7.218938351E0
1.961408402E1,6.342748642E0,-2.204873800E0,-7.183006287E0
1.966408402E1,6.316398621E0,-2.216851234E0,-7.056046009E0
1.971408402E1,6.210997105E0,-2.252783298E0,-6.538622379E0
1.976408402E1,6.072059631E0,-2.377348185E0,-6.986577034E0
1.981408402E1,6.220579147E0,-2.523472548E0,-7.353085041E0
1.986408402E1,6.263697624E0,-2.195291996E0,-6.909921646E0
1.991408402E1,6.242138386E0,-1.960535049E0,-6.751820087E0
1.996408402E1,6.450545311E0,-1.955744028E0,-6.926690102E0
2.001408402E1,6.376285553E0,-1.855134010E0,-7.034486771E0
2.006408402E1,6.340353012E0,-1.706614256E0,-6.749424458E0
2.011408402E1,6.498454571E0,-1.701823354E0,-7.396203995E0
2.016408402E1,6.615833282E0,-1.742546439E0,-7.549514294E0
2.021408402E1,6.175065041E0,-1.570072055E0,-6.684746742E0
2.026408402E1,5.777415752E0,-2.188105583E0,-7.671683788E0
2.031408402E1,6.333166599E0,-2.336625099E0,-7.463277340E0
2.036408402E1,6.527200699E0,-2.003653765E0,-8.613107681E0
2.041408402E1,8.412442207E0,-1.143676877E0,-7.599819660E0
2.046408402E1,7.679425716E0,-1.038275838E0,-8.373559952E0
2.051408402E1,7.981256008E0,-7.029088140E-1,-5.851119995E0
2.056408402E1,6.953595638E0,3.055876493E-1,-4.480906487E0
2.061408402E1,7.425505161E0,-6.262534857E-1,-3.218489170E0
2.066408402E1,8.544193268E0,-2.147382259E0,-4.971979618E0
2.071408402E1,7.128465652E0,-2.921121836E0,-6.162532330E0
2.076408402E1,5.949890137E0,-3.361890078E0,-5.546894550E0
2.081408402E1,7.037437439E0,-3.728398085E0,-5.812792301E0
2.086408402E1,8.060306549E0,-2.930703878E0,-6.011617184E0
2.091408402E1,7.799199581E0,-2.240806103E0,-6.346984386E0
2.096408402E1,7.097324371E0,-2.104263783E0,-5.637922764E0
2.101408402E1,7.562047005E0,-1.740151048E0,-6.061922073E0
2.106408402E1,6.927245617E0,-1.481439352E0,-5.067798615E0
2.111408402E1,7.092533588E0,-1.045462251E0,-5.827165604E0
2.116408402E1,6.879335880E0,-8.178917766E-1,-6.030781269E0
2.121408402E1,7.272194386E0,-4.178468883E-1,-6.828475475E0
2.126408402E1,7.847109318E0,-3.699373007E-1,-6.265537739E0
2.131408402E1,6.637392521E0,-7.196771502E-1,-5.982871532E0
2.136408402E1,5.904376030E0,-8.250781894E-1,-5.946939468E0
2.141408402E1,7.586001873E0,-9.185018539E-1,-6.787752151E0
2.146408402E1,8.390882492E0,-3.387960792E-1,-7.441718102E0
2.151408402E1,7.753685474E0,-4.178468883E-1,-5.324114799E0
2.156408402E1,9.854519844E0,9.835081100E-1,-6.418848515E0
2.161408402E1,8.558566093E0,1.376366615E0,-7.403390408E0
2.166408402E1,6.131946564E0,-7.244681120E-1,-8.253786087E0
2.171408402E1,5.327065945E0,4.157796502E-1,-5.156431198E0
2.176408402E1,7.667448521E0,9.260166287E-1,-6.368543625E0
2.181408402E1,4.831201553E0,7.798924446E-1,-5.024680138E0
2.186408402E1,7.387177467E0,6.744913459E-1,-8.728090286E0
2.191408402E1,7.102115154E0,5.762767196E-1,-7.338712215E0
2.196408402E1,6.000195026E0,-2.357904911E-1,-6.174509525E0
2.201408402E1,6.524805069E0,-4.753383696E-1,-7.561491966E0
2.206408402E1,6.476895332E0,-5.040841103E-1,-7.175819874E0
2.211408402E1,6.242138386E0,-1.095767260E0,-7.032091141E0
2.216408402E1,6.697279453E0,-1.210750222E0,-7.460881710E0
2.221408402E1,6.258906841E0,-1.217936635E0,-7.695638657E0
2.226408402E1,6.448149681E0,-8.131008148E-1,-6.821289062E0
2.231408402E1,6.726025105E0,-9.400611520E-1,-7.264452457E0
2.236408402E1,5.894793987E0,-1.110140204E0,-7.000949860E0
2.241408402E1,6.716443539E0,-1.081394434E0,-7.178215504E0
2.246408402E1,7.320104122E0,-2.396512032E0,-7.896858692E0
2.251408402E1,6.706861496E0,-1.855134010E0,-8.263367653E0
2.256408402E1,6.069664001E0,-1.936580300E0,-8.074124336E0
2.261408402E1,4.967743874E0,-2.719901800E0,-6.342193127E0
2.266408402E1,5.331856728E0,-2.374952793E0,-5.716973305E0
2.271408402E1,4.028716087E0,-2.085099936E0,-7.750734806E0
2.276408402E1,5.099495411E0,-3.246906996E0,-6.773379326E0
2.281408402E1,7.602770329E0,-2.992986202E0,-6.442803383E0
2.286408402E1,6.675720215E0,-1.934184790E0,-7.772294044E0
2.291408402E1,5.518703938E0,-2.180919170E0,-8.335231781E0
2.296408402E1,4.677891254E0,-4.320081234E0,-9.063457489E0
2.301408402E1,5.358206749E0,-3.455313683E0,-4.931256294E0
2.306408402E1,6.479290962E0,-3.122342110E0,-6.845243931E0
2.311408402E1,8.822069168E0,-2.751042843E0,-8.457401276E0
2.316408402E1,6.670929432E0,-1.821597338E0,-6.773379326E0
2.321408402E1,5.945099354E0,-2.717506170E0,-1.004320812E1
2.326408402E1,6.575109959E0,-1.668286681E0,-6.423639297E0
2.331408402E1,7.463832378E0,-1.234705091E0,-6.562577248E0
2.336408402E1,4.397620201E0,-1.301778436E0,-6.399684906E0
2.341408402E1,5.945099354E0,1.115538850E-1,-5.843933582E0
2.346408402E1,6.946409225E0,-1.078998923E0,-8.124429703E0
2.351408402E1,7.391968250E0,-2.240806103E0,-8.783185959E0
2.356408402E1,5.801370621E0,-2.381859720E-1,-7.115932941E0
2.361408402E1,5.736692429E0,-1.486230254E0,-5.118103504E0
2.366408402E1,6.771539211E0,-9.688069224E-1,-5.685832024E0
2.371408402E1,6.742793560E0,-9.400611520E-1,-7.573469162E0
2.376408402E1,6.220579147E0,-1.184399962E0,-6.926690102E0
2.381408402E1,6.139132977E0,-8.586149216E-1,-8.141198158E0
2.386408402E1,6.934432030E0,-6.262534857E-1,-7.458486080E0
2.391408402E1,6.151110172E0,7.801718265E-2,-6.591322899E0
2.396408402E1,6.843403816E0,-1.136211008E-1,-7.750734806E0
2.401408402E1,6.601460457E0,-6.094851494E-1,-6.878780365E0
2.406408402E1,6.177460670E0,-1.057439566E0,-7.290802956E0
2.411408402E1,7.183561802E0,-3.435870409E-1,-7.103955269E0
2.416408402E1,6.069664001E0,-1.505394101E0,-7.367457867E0
2.421408402E1,6.905685902E0,-8.969425559E-1,-6.727865219E0
2.426408402E1,6.563132763E0,-6.837449670E-1,-7.278825283E0
2.431408402E1,6.915267944E0,-1.351803988E-1,-7.348294258E0
2.436408402E1,6.139132977E0,-4.154514074E-1,-6.517063141E0
2.441408402E1,6.939222813E0,1.333926339E-2,-7.096768856E0
2.446408402E1,6.920059204E0,-7.292590737E-1,-7.666893005E0
2.451408402E1,6.124760151E0,-5.328298211E-1,-6.308656693E0
2.456408402E1,6.721234322E0,-4.753383696E-1,-7.405785561E0
2.461408402E1,6.994318962E0,-1.301100012E-2,-5.887052536E0
2.466408402E1,6.721234322E0,-1.675473094E0,-7.556700706E0
2.471408402E1,6.141528606E0,3.702655733E-1,-6.620068550E0
2.476408402E1,6.946409225E0,-1.244286895E0,-7.547119141E0
2.481408402E1,6.922454357E0,-3.651463687E-1,-7.350689888E0
2.486408402E1,6.570319176E0,7.801718265E-2,-6.251164913E0
2.491408402E1,6.292443752E0,-1.229914069E0,-7.022509098E0
2.496408402E1,6.522409439E0,1.402996331E-1,-7.281220913E0
2.501408402E1,7.344058514E0,-9.924823046E-2,-6.926690102E0
2.506408402E1,6.572714806E0,-4.801293314E-1,-7.036881924E0
2.511408402E1,7.389572620E0,2.049775571E-1,-7.465672493E0
2.516408402E1,6.014567852E0,3.489857167E-2,-6.380520821E0
2.521408402E1,6.457731724E0,-2.333950251E-1,-7.233311176E0
2.526408402E1,6.991923332E0,-1.747337461E0,-7.089582443E0
2.531408402E1,6.050500393E0,-3.675418198E-1,-7.535141468E0
2.536408402E1,6.781121254E0,-6.526037455E-1,-7.024904728E0
2.541408402E1,6.129550934E0,-4.418016672E-1,-6.797334194E0
2.546408402E1,6.378680706E0,-5.903213024E-1,-7.762712002E0
2.551408402E1,6.325980186E0,-9.831798077E-1,-6.502690315E0
2.556408402E1,6.694883823E0,2.792373598E-1,-6.933876514E0
2.561408402E1,7.346454144E0,-8.008439839E-2,-7.506395817E0
2.566408402E1,5.882816792E0,-4.394061863E-1,-6.596114159E0
2.571408402E1,6.278070927E0,-8.370556235E-1,-7.084791660E0
2.576408402E1,6.860171795E0,-7.699822187E-1,-7.602214813E0
2.581408402E1,6.383471966E0,-2.166266739E-1,-6.603300571E0
2.586408402E1,7.214702606E0,1.132027745E0,-6.976994991E0
2.591408402E1,6.850590229E0,4.109886885E-1,-7.230916023E0
2.596408402E1,6.072059631E0,2.205202103E0,-5.800815105E0
2.601408402E1,8.019583702E0,-1.814410806E0,-8.335231781E0
2.606408402E1,6.541573524E0,-1.268241763E0,-8.114848137E0
2.611408402E1,5.257596970E0,-7.124907374E-1,-6.555390835E0
2.616408402E1,7.904600620E0,-1.246682405E0,-7.389017582E0
2.621408402E1,5.715133190E0,-9.424566627E-1,-7.142282963E0
2.626408402E1,6.282861710E0,-3.244232237E-1,-6.811707020E0
2.631408402E1,6.788307667E0,3.319379091E-1,-8.071729660E0
2.636408402E1,6.531991482E0,8.613386750E-1,-6.557786465E0
2.641408402E1,6.876940250E0,7.032371163E-1,-7.010531902E0
2.646408402E1,6.807471275E0,1.738363355E-1,-6.735051632E0
2.651408402E1,6.371494293E0,3.247514665E-1,-7.051254749E0
2.656408402E1,6.785912037E0,-5.639710426E-1,-6.497899532E0
2.661408402E1,5.672014713E0,-2.715110779E0,-5.985267162E0
2.666408402E1,7.219493866E0,9.571578503E-1,-7.671683788E0
2.671408402E1,7.286567211E0,1.556027412E0,-7.005740643E0
2.676408402E1,7.130861282E0,2.102196693E0,-5.970893860E0
2.681408402E1,7.085347176E0,1.211078525E0,-6.529040813E0
2.686408402E1,6.857776642E0,7.846833467E-1,-7.230916023E0
2.691408402E1,7.044623852E0,5.475310087E-1,-6.552995205E0
2.696408402E1,7.320104122E0,1.738363355E-1,-7.542327881E0
2.701408402E1,6.666138172E0,2.097685039E-1,-6.538622379E0
2.706408402E1,7.102115154E0,7.128190398E-1,-6.037967682E0
2.711408402E1,5.669619083E0,2.887913465E0,-1.085048389E1
2.716408402E1,6.905685902E0,7.870788574E-1,-6.850034714E0
2.721408402E1,8.204035759E0,-1.040671229E0,-9.818033218E0
2.726408402E1,6.004986286E0,1.879417062E0,-5.443888664E0
2.731408402E1,7.686612129E0,1.050581455E0,-7.906441212E0
2.736408402E1,7.044623852E0,1.666219473E0,-7.135096550E0
2.741408402E1,6.249324799E0,1.858137250E-1,-6.866803169E0
2.746408402E1,6.960782051E0,-3.457030654E-2,-7.496813774E0
2.751408402E1,6.766748428E0,-7.891460061E-1,-7.453695297E0
2.756408402E1,6.302025318E0,-8.849651814E-1,-6.349379539E0
2.761408402E1,6.575109959E0,-1.023902893E0,-7.779480457E0
2.766408402E1,6.929640770E0,-1.184399962E0,-7.175819874E0
2.771408402E1,6.493663788E0,-1.217936635E0,-8.306486130E0
2.776408402E1,6.541573524E0,-1.421552420E0,-7.492022991E0
2.781408402E1,6.227765560E0,-9.712023735E-1,-6.370938778E0
2.786408402E1,5.674410343E0,-9.568295479E-1,-6.598509312E0
2.791408402E1,5.952285767E0,-1.687171012E-1,-7.702825069E0
2.796408402E1,5.353415966E0,6.241863370E-1,-8.337627411E0
2.801408402E1,5.818139076E0,5.403445363E-1,-7.276429653E0
2.806408402E1,6.469708920E0,-2.977934852E-2,-6.260746956E0
2.811408402E1,6.266093254E0,4.687596112E-2,-7.336317062E0
2.816408402E1,6.294838905E0,-5.824564490E-3,-7.374644279E0
2.821408402E1,7.550069809E0,-5.663664937E-1,-7.501605034E0
2.826408402E1,8.043538094E0,-2.956774831E-1,-7.300384521E0
2.831408402E1,6.421799660E0,3.729404882E-2,-7.362667084E0
2.836408402E1,6.311607361E0,3.127740622E-1,-6.924294472E0
2.841408402E1,5.794184208E0,-1.447623074E-1,-6.569763660E0
2.846408402E1,6.503245831E0,-1.591351777E-1,-6.912317276E0
2.851408402E1,6.658951759E0,-8.247987926E-2,-7.044068336E0
2.856408402E1,6.452940464E0,-1.878809333E-1,-7.101560116E0
2.861408402E1,7.008691788E0,-1.639261395E-1,-6.366147995E0
2.866408402E1,6.680510998E0,4.565027952E-1,-7.060836792E0
2.871408402E1,7.600374699E0,-6.406263709E-1,-7.190192699E0
2.876408402E1,5.068354130E0,-8.487536013E-2,-7.300384521E0
2.881408402E1,7.190748215E0,-2.573498189E-1,-7.060836792E0
2.886408402E1,5.983427048E0,-8.727083355E-2,-6.610486984E0
2.891408402E1,5.885212421E0,-1.543442309E-1,-7.144678593E0
2.896408402E1,4.838387966E0,-6.669766307E-1,-6.838057518E0
2.901408402E1,5.367788792E0,-1.301778436E0,-7.822598934E0
2.906408402E1,5.195314407E0,-1.217936635E0,-7.350689888E0
2.911408402E1,5.511517525E0,-1.742546439E0,-7.506395817E0
2.916408402E1,5.533076763E0,-1.809619904E0,-7.113537312E0
2.921408402E1,5.645664215E0,-2.200082779E0,-7.959141254E0
2.926408402E1,5.616918564E0,-1.859924912E0,-7.987886906E0
2.931408402E1,6.364307880E0,-1.529348850E0,-8.373559952E0
2.936408402E1,6.278070927E0,-2.185709953E0,-7.834576130E0
2.941408402E1,5.940308094E0,-2.149777889E0,-8.416678429E0
2.946408402E1,5.180941582E0,-1.744941950E0,-7.422554016E0
2.951408402E1,5.156986713E0,-1.445507169E0,-7.532746315E0
2.956408402E1,5.248014927E0,-1.991676211E0,-7.944768429E0
2.961408402E1,5.238432884E0,-1.675473094E0,-7.489627361E0
2.966408402E1,5.104286194E0,-1.816806316E0,-7.736361980E0
2.971408402E1,5.082726955E0,-2.075517893E0,-7.786666870E0
2.976408402E1,4.886297703E0,-2.748647451E0,-8.004655838E0
2.981408402E1,4.352106094E0,-2.779788733E0,-8.301694870E0
2.986408402E1,4.591653824E0,-1.970116973E0,-7.956745625E0
2.991408402E1,4.261077881E0,-1.843156576E0,-7.865717411E0
2.996408402E1,4.438343048E0,-3.210974932E0,-7.841763020E0
3.001408402E1,4.503021240E0,-4.205098629E0,-8.759231567E0
3.006408402E1,4.392828941E0,-3.821821928E0,-8.356791496E0
3.011408402E1,3.851450682E0,-2.861234903E0,-8.038192749E0
3.016408402E1,4.332942009E0,-2.523472548E0,-8.416678429E0
3.021408402E1,4.843179226E0,-2.427653313E0,-8.879005432E0
3.026408402E1,4.550930500E0,-2.875607729E0,-8.567593575E0
3.031408402E1,4.931811810E0,-2.319856882E0,-8.325650215E0
3.036408402E1,4.637167931E0,-2.068331480E0,-7.652520180E0
3.041408402E1,4.483857155E0,-2.564195633E0,-8.098079681E0
3.046408402E1,4.423970222E0,-2.648037434E0,-7.853740215E0
3.051408402E1,4.174840450E0,-2.856444120E0,-8.141198158E0
3.056408402E1,4.251495838E0,-2.798952579E0,-7.659706593E0
3.061408402E1,4.354501247E0,-2.346207142E0,-8.107661247E0
3.066408402E1,4.646749973E0,-2.664805651E0,-8.340023041E0
3.071408402E1,4.366478920E0,-2.729483604E0,-7.980700970E0
3.076408402E1,4.435947895E0,-3.088805437E0,-7.911231518E0
3.081408402E1,3.973620176E0,-3.378658295E0,-8.373559952E0
3.086408402E1,4.318569183E0,-2.628873587E0,-8.402305603E0
3.091408402E1,4.110162735E0,-2.880398750E0,-8.672994614E0
3.096408402E1,4.349710464E0,-2.597732306E0,-9.171254158E0
3.101408402E1,5.010862350E0,-2.307879448E0,-8.373559952E0
3.106408402E1,5.775020123E0,-2.664805651E0,-9.794077873E0
3.111408402E1,5.442048550E0,-1.924602866E0,-8.974824905E0
3.116408402E1,6.467313766E0,-1.852738500E0,-1.165536499E1
3.121408402E1,3.135202646E0,-2.018026590E0,1.550908446E0
3.126408402E1,3.868219137E0,-2.291110992E0,-2.935822725E0
3.131408402E1,5.257596970E0,-2.365370989E0,-3.046014786E0
3.136408402E1,5.372580051E0,-1.057439566E0,-7.772294044E0
3.141408402E1,7.025460243E0,-3.606228828E0,-5.201945305E0
3.146408402E1,3.274140358E0,4.493163526E-1,-1.302078819E1
3.151408402E1,6.119969368E0,3.582881689E-1,-6.313447475E0
3.156408402E1,6.337957859E0,-4.777338505E-1,-6.533831596E0
3.161408402E1,7.356036186E0,-4.441971481E-1,-7.206961155E0
3.166408402E1,7.169188976E0,2.552825809E-1,-4.976770401E0
3.171408402E1,6.306816578E0,-6.310444474E-1,-9.017943382E0
3.176408402E1,5.645664215E0,-4.897112250E-1,-8.155570984E0
3.181408402E1,3.956851721E0,-3.675418198E-1,-7.312362194E0
3.186408402E1,2.878886461E0,-4.657564461E-1,-7.836971760E0
3.191408402E1,4.220354557E0,-1.375758797E-1,-9.621603966E0
3.196408402E1,3.932897091E0,-2.142311931E-1,-7.099164486E0
3.201408402E1,3.211858034E0,2.451936483E0,-9.870733261E0
3.206408402E1,6.797889709E0,2.471100330E0,-1.160745525E1
3.211408402E1,4.749755383E0,5.499264598E-1,-2.650760889E0
3.216408402E1,3.420264482E0,5.000725746E0,3.266071081E0
3.221408402E1,6.975154877E0,1.699756145E0,-8.617897987E0
3.226408402E1,1.266729474E0,1.100886583E0,-2.314887047E1
3.231408402E1,1.132582664E0,3.057992458E0,-1.218237019E1
3.236408402E1,5.470794678E0,5.939753056E0,-1.128885651E1
3.241408402E1,6.656556129E0,2.382467508E0,-1.308786106E1
3.246408402E1,5.911562443E0,2.241413891E-1,-7.120723724E0
3.251408402E1,6.510432243E0,1.014649272E0,-8.898169518E0
3.256408402E1,5.691178322E0,1.361993670E0,-8.776000023E0
3.261408402E1,5.252805710E0,1.064954400E0,-7.947164059E0
3.266408402E1,4.699450493E0,2.085428238E0,-8.488542557E0
3.271408402E1,4.919834614E0,1.115259409E0,-6.014012814E0
3.276408402E1,3.460987806E0,2.231552362E0,-8.122034073E0
3.281408402E1,3.044174433E0,2.487868547E0,-9.238327026E0
3.286408402E1,5.458817005E0,2.454331875E0,-7.530350685E0
3.291408402E1,4.562908173E0,2.001586437E0,-7.892067432E0
3.296408402E1,3.911337614E0,1.776411533E0,-8.749650002E0
3.301408402E1,4.953371048E0,1.932117581E0,-1.002404404E1
3.306408402E1,3.674185276E0,2.533382654E0,-7.592633247E0
3.311408402E1,4.689868450E0,2.471100330E0,-8.277740479E0
3.316408402E1,4.668309212E0,2.751371145E0,-6.272724152E0
3.321408402E1,5.554636002E0,2.430377245E0,-7.827390194E0
3.326408402E1,6.000195026E0,1.721315503E0,-8.119638443E0
3.331408402E1,5.377370834E0,1.584773183E0,-7.748339176E0
3.336408402E1,4.847970009E0,1.774016023E0,-8.656226158E0
3.341408402E1,5.396534443E0,2.353721857E0,-8.105265617E0
3.346408402E1,3.952060938E0,1.278151989E0,-9.295818329E0
3.351408402E1,4.308987141E0,4.636892080E-1,-1.146133137E1
3.356408402E1,4.785687447E0,1.292524815E0,-7.671683788E0
3.361408402E1,3.489733458E0,1.333248019E0,-8.764022827E0
3.366408402E1,2.498005390E0,3.439152837E-1,-7.475254536E0
3.371408402E1,5.183337212E0,1.419485211E0,-7.908835888E0
3.376408402E1,4.479066372E0,1.785993457E0,-1.015579605E1
3.381408402E1,4.462297916E0,1.316479564E0,-9.813241959E0
3.386408402E1,3.422660112E0,4.504861355E0,-7.607006073E0
3.391408402E1,4.740173340E0,5.166692287E-2,-8.716113091E0
3.396408402E1,5.923540115E0,1.201496601E0,-9.295818329E0
3.401408402E1,3.420264482E0,1.915349245E0,-2.643574476E0
3.406408402E1,3.036988020E0,-9.951571822E-1,-1.518390465E1
3.411408402E1,5.442048550E0,-2.597732306E0,-1.370349884E1
3.416408402E1,6.194229126E0,-7.388409972E-1,-7.448904514E0
3.421408402E1,5.070749760E0,-1.898252606E0,-4.694104195E0
3.426408402E1,5.269574165E0,-2.082704544E0,-7.566282749E0
3.431408402E1,2.430932045E0,-3.203788280E0,-9.391637802E0
3.436408402E1,5.827720642E0,-4.348827362E0,-7.345898628E0
3.441408402E1,6.187042713E0,-2.784579754E0,-5.688227654E0
3.446408402E1,4.685077667E0,-3.709234476E0,-8.833491325E0
3.451408402E1,5.516308784E0,-3.436149836E0,-7.226124763E0
3.456408402E1,5.614522934E0,-3.987109900E0,-7.506395817E0
3.461408402E1,5.557031631E0,-3.316375971E0,-6.598509312E0
3.466408402E1,5.094704151E0,-4.176352501E0,-7.779480457E0
3.471408402E1,6.203810692E0,-4.008669376E0,-6.854825497E0
3.476408402E1,4.924625397E0,-3.891290665E0,-6.847639084E0
3.481408402E1,-9.455431938E0,-1.424454880E1,-2.396093750E1
3.486408402E1,8.690317154E0,-2.152173281E0,-5.070194244E0
3.491408402E1,4.285032749E0,-1.241891503E0,-7.755525589E0
3.496408402E1,4.917438984E0,-2.985799789E0,-7.238102436E0
3.501408402E1,4.735382557E0,-3.622997046E0,-8.155570984E0
3.506408402E1,5.257596970E0,-3.558319330E0,-7.992678165E0
3.511408402E1,4.821619987E0,-2.863630533E0,-8.057356834E0
3.516408402E1,4.680286407E0,-3.110364676E0,-6.835661888E0
3.521408402E1,3.707721949E0,-2.628873587E0,-6.610486984E0
3.526408402E1,4.299405575E0,-3.975132465E0,-9.925829887E0
3.531408402E1,5.875630379E0,-4.768035889E0,-7.712407112E0
3.536408402E1,5.049190044E0,-3.285234690E0,-1.238838196E1
3.541408402E1,5.794184208E0,-2.621687174E0,-7.341107845E0
3.546408402E1,5.604941368E0,-2.473167419E0,-5.843933582E0
3.551408402E1,4.869529247E0,-2.688760519E0,-7.738757133E0
3.556408402E1,4.828806400E0,-3.227743149E0,-8.023819923E0
3.561408402E1,6.172669888E0,-3.776307821E0,-7.264452457E0
3.566408402E1,5.111472607E0,-2.557009220E0,-8.124429703E0
3.571408402E1,5.497144699E0,-1.356874466E0,-8.340023041E0
3.576408402E1,3.106456995E0,-2.019743621E-2,-7.082396030E0
3.581408402E1,3.616693735E0,-1.522162437E0,-9.628789902E0
3.586408402E1,5.969054222E0,-1.730569124E0,-7.175819874E0
3.591408402E1,4.618004322E0,-2.774997711E0,-8.610712051E0
3.596408402E1,5.683991909E0,-2.061145067E0,-1.043367100E1
3.601408402E1,5.705551147E0,-2.171337128E0,-8.443028450E0
3.606408402E1,4.512602806E0,-1.074208021E0,-6.893153191E0
3.611408402E1,3.365168571E0,-7.053042650E-1,-8.661017418E0
3.616408402E1,4.953371048E0,-2.188105583E0,-8.421468735E0
3.621408402E1,5.775020123E0,-9.903662205E-1,-9.087411880E0
3.626408402E1,3.662207842E0,3.247514665E-1,-8.002260208E0
3.631408402E1,3.889778376E0,1.813022047E-2,-8.438237190E0
3.636408402E1,3.873009920E0,1.096095562E0,-8.165152550E0
3.641408402E1,4.946184635E0,1.146400690E0,-8.512496948E0
3.646408402E1,5.446839809E0,5.642993450E-1,-8.771208763E0
3.651408402E1,3.528061152E0,1.443439960E0,-7.587841988E0
3.656408402E1,4.639563560E0,9.715306759E-1,-7.767502785E0
3.661408402E1,4.972535133E0,7.535421848E-1,-8.778395653E0
3.666408402E1,4.275450706E0,1.033813119E0,-8.517288208E0
3.671408402E1,4.560512543E0,1.975236177E0,-7.880090237E0
3.676408402E1,1.668881989E1,3.192139387E0,-3.124798393E1
3.681408402E1,5.367788792E0,1.577586770E0,-8.773604393E0
3.686408402E1,3.954456329E0,-2.142311931E-1,-7.592633247E0
3.691408402E1,4.249100208E0,2.169549465E-1,-8.387932777E0
3.696408402E1,4.905461311E0,-6.331604719E-2,-9.820428848E0
3.701408402E1,4.440738678E0,4.900394976E-1,-8.088497162E0
3.706408402E1,4.069439411E0,-8.487536013E-2,-7.997468472E0
3.711408402E1,4.615608692E0,-2.597452998E-1,-8.651434898E0
3.716408402E1,4.203586102E0,-1.061552204E-2,-8.265763283E0
3.721408402E1,5.231246471E0,-1.553303719E0,-9.968948364E0
3.726408402E1,4.495834827E0,5.166692287E-2,-8.335231781E0
3.731408402E1,4.229936600E0,2.771213278E-2,-7.393808365E0
3.736408402E1,5.763042927E0,4.038022459E-1,-9.705445290E0
3.741408402E1,5.125845432E0,4.708756506E-1,-9.921038628E0
3.746408402E1,4.050275803E0,1.481767654E0,-7.187797070E0
3.751408402E1,5.228851318E0,8.110336661E-1,-7.827390194E0
3.756408402E1,4.778501034E0,5.882541537E-1,-8.320858955E0
3.761408402E1,3.307677031E0,4.085932076E-1,-7.245288849E0
3.766408402E1,5.973845005E0,2.001865953E-1,-7.257266045E0
3.771408402E1,5.178545952E0,-5.208524466E-1,-6.622464180E0
3.776408402E1,5.200105190E0,8.924798965E-1,-8.167548180E0
3.781408402E1,5.772624969E0,-2.190221548E-1,-8.946079254E0
3.786408402E1,5.415698528E0,-2.333950251E-1,-8.256180763E0
3.791408402E1,4.809642315E0,-4.609654844E-1,-7.065627575E0
3.796408402E1,5.894793987E0,-1.471577883E-1,-8.725694656E0
3.801408402E1,5.913958073E0,-9.424566627E-1,-1.050793076E1
3.806408402E1,6.093618870E0,1.474860758E-1,-8.392723083E0
3.811408402E1,5.918748856E0,-5.855303407E-1,-9.223954201E0
3.816408402E1,5.279156208E0,-1.735080630E-1,-6.950644970E0
3.821408402E1,5.315088272E0,-1.112256199E-1,-8.110056877E0
3.826408402E1,5.293529034E0,1.361871138E-3,-8.129220963E0
3.831408402E1,4.455111504E0,8.972708583E-1,-7.183006287E0
3.836408402E1,5.743878841E0,-1.854854524E-1,-7.571073532E0
3.841408402E1,5.037212849E0,5.738812685E-1,-7.410576820E0
3.846408402E1,6.457731724E0,-8.705922961E-1,-8.069334030E0
3.851408402E1,5.489958286E0,4.229660928E-1,-7.549514294E0
3.856408402E1,5.494749069E0,-1.814410806E0,-9.861151695E0
3.861408402E1,5.954680920E0,1.333926339E-2,-7.180610657E0
3.866408402E1,5.437257767E0,-5.711574554E-1,-7.863321781E0
3.871408402E1,5.995404243E0,-8.729877472E-1,-7.568678379E0
3.876408402E1,5.535472393E0,-1.306569338E0,-9.231141090E0
3.881408402E1,5.408512115E0,-8.226827383E-1,-7.628565311E0
3.886408402E1,5.806161404E0,-5.639710426E-1,-7.341107845E0
3.891408402E1,5.590568542E0,-1.155654192E0,-8.122034073E0
3.896408402E1,5.660037041E0,-4.465926290E-1,-7.772294044E0
3.901408402E1,5.729506016E0,-7.076997757E-1,-8.023819923E0
3.906408402E1,5.449234962E0,-5.352252722E-1,-7.700429440E0
3.911408402E1,5.789392948E0,-6.645811200E-1,-8.452610016E0
3.916408402E1,4.788083076E0,-1.399713606E-1,-7.123119354E0
3.921408402E1,4.898274899E0,-8.202872276E-1,-8.059751511E0
3.926408402E1,6.040918350E0,-3.124458194E-1,-8.095684052E0
3.931408402E1,5.446839809E0,3.031921685E-1,-7.844158649E0
3.936408402E1,5.262387753E0,3.918248713E-1,-7.190192699E0
3.941408402E1,5.118659019E0,1.307177246E-1,-7.525559425E0
3.946408402E1,5.681596756E0,-7.436319590E-1,-7.717197895E0
3.951408402E1,5.269574165E0,1.158378005E0,-5.779255867E0
3.956408402E1,4.768919468E0,3.942203522E-1,-7.362667084E0
3.961408402E1,5.861257553E0,3.463107646E-1,-7.602214813E0
3.966408402E1,6.136737347E0,-9.352701902E-1,-8.481355667E0
3.971408402E1,5.755856514E0,-1.189190984E0,-7.199774742E0
3.976408402E1,5.710342407E0,-1.019111991E0,-7.329130650E0
3.981408402E1,6.187042713E0,1.259267628E-1,-7.700429440E0
3.986408402E1,5.743878841E0,-6.549992561E-1,-7.472858906E0
3.991408402E1,6.505640984E0,5.451354980E-1,-7.317152977E0
3.996408402E1,4.924625397E0,2.116569519E0,-6.701515198E0
4.001408402E1,6.335562229E0,-1.399713606E-1,-7.904045582E0
4.006408402E1,6.342748642E0,-1.251473427E0,-7.614192486E0
4.011408402E1,6.055291176E0,1.573474333E-2,-8.184316635E0
4.016408402E1,6.004986286E0,-6.310444474E-1,-8.469378471E0
4.021408402E1,5.262387753E0,-1.040391847E-1,-6.277515411E0
4.026408402E1,6.079246044E0,-2.498839423E-2,-7.573469162E0
4.031408402E1,6.052895546E0,9.882990122E-1,-7.412971973E0
4.036408402E1,6.244534016E0,-7.050248235E-2,-8.282531738E0
4.041408402E1,6.194229126E0,-5.208524466E-1,-7.470463753E0
4.046408402E1,5.125845432E0,3.990113139E-1,-7.324339390E0
4.051408402E1,6.723629951E0,1.431462526E0,-7.127910137E0
4.056408402E1,6.469708920E0,4.541073143E-1,-7.032091141E0
4.061408402E1,5.636082649E0,-4.250333309E-1,-7.654915333E0
4.066408402E1,6.850590229E0,1.510513425E0,-6.701515198E0
4.071408402E1,6.944013596E0,-1.184120551E-1,-6.739842892E0
4.076408402E1,5.798974991E0,-3.172367811E-1,-5.745718956E0
4.081408402E1,5.983427048E0,-8.346601129E-1,-6.555390835E0
4.086408402E1,8.055516243E0,-1.095767260E0,-8.989197731E0
4.091408402E1,6.582296371E0,-6.813495159E-1,-9.061061859E0
4.096408402E1,6.316398621E0,-1.926718801E-1,-9.228745461E0
4.101408402E1,6.038522720E0,-2.190221548E-1,-5.379210949E0
4.106408402E1,5.849279881E0,-4.654769972E-2,-6.105041027E0
4.111408402E1,7.006296158E0,-8.346601129E-1,-5.527730465E0
4.116408402E1,9.387401581E0,-1.491021276E0,-6.998554230E0
4.121408402E1,8.323809624E0,-1.574862957E0,-7.860927105E0
4.126408402E1,8.273504257E0,-8.777787089E-1,-8.402305603E0
4.131408402E1,9.883265495E0,-8.610103726E-1,-5.944543839E0
4.136408402E1,5.343833923E0,-2.837000787E-1,-6.239187717E0
4.141408402E1,5.681596756E0,8.924798965E-1,-5.882261276E0
4.146408402E1,6.531991482E0,1.882092059E-1,-4.531211376E0
4.151408402E1,6.821844578E0,-4.082649648E-1,-5.906216145E0
4.156408402E1,6.376285553E0,1.304502249E0,-6.493108273E0
4.161408402E1,7.957301140E0,-9.927617311E-1,-6.411662102E0
4.166408402E1,7.705775738E0,-8.154962659E-1,-5.700204849E0
4.171408402E1,7.058996677E0,-1.102953672E0,-5.671459198E0
4.176408402E1,7.631515980E0,-1.871902347E0,-5.063007832E0
4.181408402E1,8.819673538E0,-9.304792881E-1,-4.957606792E0
4.186408402E1,7.780035973E0,8.852934837E-1,-5.470239162E0
4.191408402E1,8.879560471E0,7.942652702E-1,-5.704996109E0
4.196408402E1,8.223198891E0,7.894743085E-1,-5.894238949E0
4.201408402E1,8.400465012E0,5.499264598E-1,-7.171028614E0
4.206408402E1,8.172894478E0,1.000276446E0,-4.627030849E0
4.211408402E1,7.248239517E0,2.516614437E0,-3.894014359E0
4.216408402E1,6.417008400E0,2.516614437E0,-1.029021978E0
4.221408402E1,7.784826756E0,-1.014320970E0,-8.828700066E0
4.226408402E1,7.813572407E0,5.523219705E-1,-4.375505447E0
4.231408402E1,6.136737347E0,2.274671078E0,-4.174285412E0
4.236408402E1,7.231471062E0,2.071055412E0,-5.082171440E0
4.241408402E1,7.837527275E0,1.877021551E0,-3.228071213E0
4.246408402E1,7.370409012E0,4.708756506E-1,-4.049720287E0
4.251408402E1,8.342972755E0,-9.280837774E-1,-5.503775597E0
4.256408402E1,8.563357353E0,-1.136211008E-1,-7.262056828E0
4.261408402E1,1.032642937E1,-4.178468883E-1,-3.515528679E0
4.266408402E1,1.362739849E1,-2.499517679E0,-5.436702251E0
4.271408402E1,8.024374008E0,-4.082649648E-1,-4.404251099E0
4.276408402E1,8.937051773E0,9.239005297E-2,-4.468928814E0
4.281408402E1,8.683131218E0,4.445253909E-1,-3.661652803E0
4.286408402E1,8.905910492E0,-2.262085825E-1,-3.405336618E0
4.291408402E1,8.184871674E0,-2.477678955E-1,-2.459122658E0
4.296408402E1,8.395673752E0,3.870339096E-1,-2.684297562E0
4.301408402E1,9.653300285E0,-1.040391847E-1,-2.859167576E0
4.306408402E1,9.344283104E0,-2.019743621E-2,-1.970445037E0
4.311408402E1,9.320328712E0,1.402996331E-1,-1.984817863E0
4.316408402E1,9.231696129E0,-4.322197437E-1,-1.831507325E0
4.321408402E1,9.741932869E0,-4.777338505E-1,-7.846831083E-1
4.326408402E1,1.040308475E1,-6.046941876E-1,-2.214783669E0
4.331408402E1,1.043901730E1,-2.956774831E-1,-8.182198405E-1
4.336408402E1,1.099716377E1,-3.196322620E-1,2.429771870E-1
4.341408402E1,9.636531830E0,6.337682009E-1,5.208526850E-1
4.346408402E1,8.747809410E0,2.552825809E-1,4.777340889E-1
4.351408402E1,8.115403175E0,3.007966876E-1,4.274290204E-1
4.356408402E1,8.889142036E0,3.558926880E-1,1.002343893E0
4.361408402E1,1.010125446E1,-9.616205096E-1,-2.289320976E-1
4.366408402E1,1.033122063E1,-7.532138228E-1,7.484231591E-1
4.371408402E1,1.074084759E1,-9.999481440E-1,2.453726530E-1
4.376408402E1,1.045099449E1,-6.238580346E-1,-3.757104278E-3
4.381408402E1,9.660486221E0,1.139493659E-1,5.400165319E-1
4.386408402E1,1.003418064E1,-3.723327816E-1,9.496433735E-1
4.391408402E1,9.277210236E0,2.292117849E-2,5.927170515E-1
4.396408402E1,9.461661339E0,-7.053042650E-1,1.021507740E0
4.401408402E1,8.989752769E0,-5.256434083E-1,2.573500574E-1
4.406408402E1,9.761096954E0,-3.675418198E-1,3.429323435E-3
4.411408402E1,9.571853638E0,-1.040391847E-1,-2.504913807E-1
4.416408402E1,9.878475189E0,-4.921067059E-1,-2.771189809E-2
4.421408402E1,9.267627716E0,-6.331604719E-2,3.483782411E-1
4.426408402E1,8.858000755E0,2.888192832E-1,2.525590956E-1
4.431408402E1,9.856915474E0,-3.603554070E-1,2.908867598E-1
4.436408402E1,1.050129986E1,-6.885359287E-1,-2.600733042E-1
4.441408402E1,9.377820015E0,1.906046867E-1,7.005136013E-1
4.446408402E1,9.538316727E0,-5.133865774E-2,5.951125026E-1
4.451408402E1,8.620848656E0,2.960057259E-1,9.041292667E-1
4.456408402E1,8.877164841E0,1.474860758E-1,7.699824572E-1
4.461408402E1,9.682045937E0,-7.508183718E-1,7.532141209E-1
4.466408402E1,9.250859261E0,-3.507734835E-1,6.142763495E-1
4.471408402E1,9.528735161E0,-1.423668414E-1,7.699824572E-1
4.476408402E1,1.002939034E1,-2.309995443E-1,4.753385782E-1
4.481408402E1,1.043901730E1,-7.891460061E-1,1.064349040E-1
4.486408402E1,9.260441780E0,-1.735080630E-1,5.400165319E-1
4.491408402E1,9.320328712E0,-1.782990098E-1,4.274290204E-1
4.496408402E1,9.564667702E0,1.361871138E-3,7.963327169E-1
4.501408402E1,9.495198250E0,-2.498839423E-2,4.585702419E-1
4.506408402E1,1.007250881E1,-4.585700035E-1,4.513838291E-1
4.511408402E1,9.952734947E0,-3.124458194E-1,4.370109439E-1
4.516408402E1,9.643717766E0,-2.070447505E-1,2.908867598E-1
4.521408402E1,9.602994919E0,-5.232478976E-1,4.657567143E-1
4.526408402E1,9.341887474E0,-1.663216203E-1,3.244234622E-1
4.531408402E1,8.889142036E0,1.115538850E-1,1.902766526E-1
4.536408402E1,9.830565453E0,-8.011234403E-1,-3.729380667E-2
4.541408402E1,9.095153809E0,-2.498839423E-2,2.980731726E-1
4.546408402E1,9.171809196E0,-3.457030654E-2,2.621410191E-1
4.551408402E1,1.035757065E1,-3.531689644E-1,-1.573449373E-2
4.556408402E1,7.144227600E1,1.709338069E0,-5.595081449E-1
4.561408402E1,2.966033745E1,7.820203781E0,6.634113789E0
4.566408402E1,2.652944565E1,9.715306759E-1,1.910230160E0
4.571408402E1,1.051327705E1,1.642544121E-1,-5.068075657E-1
4.576408402E1,3.652626038E0,3.405336857E0,-1.599145889E0
4.581408402E1,9.298768997E0,2.535778284E0,-1.122445583E0
4.586408402E1,7.995628834E0,-1.615306586E-1,-6.816775203E-1
4.591408402E1,1.196733189E1,2.154897213E0,-1.647055387E0
4.596408402E1,9.782655716E0,3.779031515E0,-1.476976514E0
4.601408402E1,9.741932869E0,2.631597281E0,2.498863637E-2
4.606408402E1,8.766972542E0,2.835212946E0,-8.541520238E-1
4.611408402E1,1.050848579E1,3.134647846E0,-2.696552277E-1
4.616408402E1,9.535921097E0,2.389653921E0,1.759037822E-1
4.621408402E1,1.078636169E1,1.599146128E0,-7.224006653E-1
4.626408402E1,9.775469780E0,8.014517426E-1,8.131011128E-1
4.631408402E1,9.835356712E0,2.409097403E-1,7.196774483E-1
4.636408402E1,9.967107773E0,-6.502082944E-1,5.591803789E-1
4.641408402E1,8.901120186E0,6.843526661E-2,-9.718076885E-2
4.646408402E1,9.341887474E0,-4.322197437E-1,-3.966155648E-1
4.651408402E1,8.663967133E0,-7.963324785E-1,-6.936548948E-1
4.656408402E1,7.823154449E0,-1.902763993E-1,-5.619035959E-1
4.661408402E1,8.824464798E0,-6.526037455E-1,-7.631238103E-1
4.666408402E1,1.012520885E1,-1.004739165E0,-6.337679625E-1
4.671408402E1,9.200554848E0,1.714408547E-1,-3.295421600E-1
4.676408402E1,9.471243858E0,3.295424283E-1,-6.505362988E-1
4.681408402E1,9.449684143E0,5.406239629E-2,-4.612935185E-1
4.686408402E1,8.853210449E0,9.020618200E-1,-2.984009385E-1
4.691408402E1,1.085822582E1,-1.687171012E-1,-1.402993947E-1
4.696408402E1,1.045339012E1,6.603979319E-2,2.381862253E-1
4.701408402E1,9.523943901E0,1.117654920E0,2.094404846E-1
4.706408402E1,1.039110756E1,6.098134518E-1,7.580050826E-1
4.711408402E1,1.063544655E1,1.882092059E-1,3.699375391E-1
4.716408402E1,1.112412357E1,2.001865953E-1,1.356874704E0
4.721408402E1,1.056358147E1,2.049775571E-1,-3.750562668E-1
4.726408402E1,1.014437294E1,2.744464278E-1,-7.511463761E-1
4.731408402E1,8.862792015E0,1.242219806E0,-3.750562668E-1
4.736408402E1,1.436999702E1,-1.519487500E-1,6.214627624E-1
4.741408402E1,8.467537880E0,4.038022459E-1,7.289820910E-2
4.746408402E1,9.095153809E0,6.792823076E-1,-4.565025568E-1
4.751408402E1,1.070491505E1,5.499264598E-1,-5.403442979E-1
4.756408402E1,1.098758125E1,1.762318164E-1,-4.325477481E-1
4.761408402E1,8.776555061E0,-1.251473427E0,3.805053949E0
4.766408402E1,6.872149467E0,-2.097077370E0,4.780013561E0
4.771408402E1,1.017072296E1,-1.725778103E0,5.970566273E0
4.776408402E1,9.480825424E0,-3.723327816E-1,7.604005337E-1
4.781408402E1,8.757390976E0,1.108072996E0,-2.763348341E0
4.786408402E1,1.229551315E1,-9.685274959E-2,2.561800480E0
4.791408402E1,9.734745979E0,1.906046867E-1,9.304795265E-1
4.796408402E1,9.969503403E0,-6.810700893E-2,1.064349040E-1
4.801408402E1,1.017551422E1,4.181751311E-1,3.483782411E-1
4.806408402E1,9.200554848E0,5.166692287E-2,1.213145971E0
4.811408402E1,9.404170036E0,-1.567397118E-1,2.710320234E0
4.816408402E1,9.753910065E0,5.645787716E-2,1.234705210E0
4.821408402E1,9.327514648E0,1.426951140E-1,8.220285177E-3
4.826408402E1,9.514362335E0,2.433052212E-1,3.771239817E-1
4.831408402E1,9.876079559E0,3.295424283E-1,8.178920746E-1
4.836408402E1,9.696418762E0,2.696554661E-1,9.304795265E-1
4.841408402E1,9.799424171E0,3.558926880E-1,5.472029448E-1
4.846408402E1,9.902429581E0,1.426951140E-1,6.669768691E-1
4.851408402E1,1.009646320E1,2.361187786E-1,1.071812749E0
4.856408402E1,1.020665550E1,6.843526661E-2,5.759487152E-1
4.861408402E1,1.007730007E1,1.067629233E-1,7.364457846E-1
4.866408402E1,9.792237282E0,1.331131905E-1,1.158049941E0
4.871408402E1,9.550294876E0,4.157796502E-1,1.004739285E0
4.876408402E1,1.006292725E1,3.942203522E-1,1.141281605E0
4.881408402E1,9.420938492E0,1.307177246E-1,8.801745176E-1
4.886408402E1,9.540712357E0,2.648645043E-1,7.172819376E-1
4.891408402E1,9.849729538E0,3.391243517E-1,9.448524117E-1
4.896408402E1,9.646113396E0,1.450905949E-1,1.165236354E0
4.901408402E1,9.662881851E0,4.469208717E-1,6.861407161E-1
4.906408402E1,9.763491631E0,6.364431232E-2,1.093372107E0
4.911408402E1,9.782655716E0,4.208500683E-2,9.927619696E-1
4.916408402E1,9.787446976E0,5.166692287E-2,7.029090524E-1
4.921408402E1,9.703604698E0,1.810227633E-1,1.095767498E0
4.926408402E1,1.004855442E1,5.666948557E-1,5.400165319E-1
4.931408402E1,9.744328499E0,3.007966876E-1,1.155654550E0
4.936408402E1,1.002939034E1,-9.924823046E-2,5.927170515E-1
4.941408402E1,9.526339531E0,-6.810700893E-2,1.514976263E0
4.946408402E1,1.005334473E1,1.211357936E-1,3.555646539E-1
4.951408402E1,9.722768784E0,2.097685039E-1,1.371247530E0
4.956408402E1,9.665277481E0,4.181751311E-1,6.406266093E-1
4.961408402E1,9.962316513E0,1.642544121E-1,1.107744932E0
4.966408402E1,9.646113396E0,1.283222437E-1,6.597904563E-1
4.971408402E1,9.720373154E0,1.642544121E-1,1.134095192E0
4.976408402E1,9.478429794E0,2.648645043E-1,8.538241982E-1
4.981408402E1,1.008688164E1,3.630791306E-1,8.370558619E-1
4.986408402E1,9.701210022E0,3.271469474E-1,8.658016324E-1
4.991408402E1,9.571853638E0,1.570679843E-1,1.086185575E0
4.996408402E1,9.703604698E0,1.450905949E-1,1.043066978E0
5.001408402E1,9.538316727E0,1.906046867E-1,5.879260898E-1
5.006408402E1,1.003178596E1,4.493163526E-1,6.070899367E-1
5.011408402E1,9.519153595E0,3.175650239E-1,6.046944261E-1
5.016408402E1,9.907220840E0,1.450905949E-1,1.090976596E0
5.021408402E1,9.761096954E0,1.570679843E-1,9.879710078E-1
5.026408402E1,9.667673111E0,5.885335803E-2,6.190673113E-1
5.031408402E1,9.902429581E0,1.786272973E-1,7.891463041E-1
5.036408402E1,9.404170036E0,2.457007021E-1,7.388412356E-1
5.041408402E1,1.018270111E1,1.235312745E-1,8.801745176E-1
5.046408402E1,9.787446976E0,1.522770226E-1,7.699824572E-1
5.051408402E1,9.605390549E0,-2.259291336E-2,8.059146404E-1
5.056408402E1,1.001501751E1,3.487062454E-1,2.908867598E-1
5.061408402E1,9.459266663E0,3.750565052E-1,7.460277081E-1
5.066408402E1,9.938362122E0,1.307177246E-1,5.088753104E-1
5.071408402E1,9.691627502E0,2.648645043E-1,8.801745176E-1
5.076408402E1,9.787446976E0,1.813022047E-2,7.316548228E-1
5.081408402E1,9.660486221E0,2.169549465E-1,6.837452054E-1
5.086408402E1,9.880870819E0,3.489857167E-2,8.418468237E-1
5.091408402E1,9.447288513E0,4.445253909E-1,7.580050826E-1
5.096408402E1,9.658090591E0,2.648645043E-1,6.382311583E-1
5.101408402E1,9.950339317E0,3.558926880E-1,8.298694491E-1
5.106408402E1,9.583830833E0,2.217459083E-1,7.771689296E-1
5.111408402E1,9.646113396E0,1.522770226E-1,7.580050826E-1
5.116408402E1,9.768282890E0,1.187403128E-1,6.549994946E-1
5.121408402E1,9.820983887E0,1.379041523E-1,7.747734189E-1
5.126408402E1,9.737141609E0,3.199605048E-1,8.298694491E-1
5.131408402E1,9.583830833E0,1.714408547E-1,8.011236787E-1
5.136408402E1,9.988666534E0,3.223559856E-1,4.825250506E-1
5.141408402E1,9.540712357E0,1.906046867E-1,1.040671468E0
5.146408402E1,9.756305695E0,1.211357936E-1,6.358356476E-1
5.151408402E1,1.006292725E1,8.759909868E-2,7.604005337E-1
5.156408402E1,9.602994919E0,3.151695430E-1,7.580050826E-1
5.161408402E1,9.672463417E0,1.379041523E-1,7.005136013E-1
5.166408402E1,9.638927460E0,1.283222437E-1,7.053045630E-1
5.171408402E1,9.900033951E0,6.152828224E-3,7.053045630E-1
5.176408402E1,9.284396172E0,6.603979319E-2,9.352704883E-1
5.181408402E1,9.655695915E0,8.999457955E-2,2.669319510E-1
5.186408402E1,9.787446976E0,7.083074749E-2,6.406266093E-1
5.191408402E1,9.574249268E0,2.121639848E-1,6.406266093E-1
5.196408402E1,9.619763374E0,-1.423668414E-1,7.316548228E-1
5.201408402E1,9.396984100E0,1.331131905E-1,6.118808985E-1
5.206408402E1,1.072886944E1,-1.926718801E-1,3.914968371E-1
5.211408402E1,1.037433910E1,-1.543442309E-1,6.238582730E-1
5.216408402E1,7.547674179E0,7.655195594E-1,1.246682644E0
5.221408402E1,8.400465012E0,5.738812685E-1,1.878811717E-1
5.226408402E1,1.050369453E1,-3.867056668E-1,-3.031919003E-1
5.231408402E1,1.225239468E1,-8.969425559E-1,4.801295400E-1
5.236408402E1,7.162002087E0,9.284120798E-1,-3.918246031E-1
5.241408402E1,9.605390549E0,6.577230096E-1,-6.146041155E-1
5.246408402E1,1.234102726E1,-1.416761398E0,2.741183937E-1
5.251408402E1,1.030247498E1,-2.286040634E-1,-1.259265095E-1
5.256408402E1,8.915493011E0,9.571578503E-1,7.412367463E-1
5.261408402E1,8.984961510E0,8.972708583E-1,-1.762315780E-1
5.266408402E1,9.413752556E0,3.894293904E-1,1.854856908E-1
5.271408402E1,1.057316399E1,-1.658704758E0,3.220279813E-1
5.276408402E1,8.922678947E0,-7.532138228E-1,1.375761330E-1
5.281408402E1,9.852125168E0,2.111778498E0,3.124460578E-1
5.286408402E1,9.660486221E0,6.481410861E-1,1.416761637E0
5.291408402E1,5.870839596E0,7.822878957E-1,-1.235310286E-1
5.296408402E1,1.145469952E1,1.738083839E0,-5.115985274E-1
5.301408402E1,1.660976982E1,-2.020421982E0,1.129304171E0
5.306408402E1,6.941618443E0,-5.567846298E-1,5.064797997E-1
5.311408402E1,7.042228222E0,1.309293151E0,7.987282276E-1
5.316408402E1,7.689007759E0,6.313727498E-1,3.028641343E-1
5.321408402E1,1.378310490E1,-9.017335176E-1,8.248011768E-2
5.326408402E1,1.574500179E1,-7.604002953E-1,2.176128387E0
5.331408402E1,6.098409653E0,3.199605048E-1,1.447625607E-1
5.336408402E1,8.417233467E0,1.139214158E0,1.208077744E-1
5.341408402E1,1.102590942E1,-1.088301465E-1,8.514287472E-1
5.346408402E1,9.746724129E0,-6.669766307E-1,6.334401965E-1
5.351408402E1,7.626725197E0,-2.932820022E-1,3.483782411E-1
5.356408402E1,8.934656143E0,1.211078525E0,1.447625607E-1
5.361408402E1,1.173736668E1,7.391692996E-1,8.849654198E-1
5.366408402E1,1.112412357E1,-6.981178522E-1,2.166269124E-1
5.371408402E1,6.534387112E0,7.562170178E-2,5.975080132E-1
5.376408402E1,6.012172699E0,6.625139713E-1,7.963327169E-1
5.381408402E1,1.083906174E1,-1.567397118E-1,6.430221200E-1
5.386408402E1,1.282491398E1,-1.883879662E0,-3.415195942E-1
5.391408402E1,7.451855183E0,3.968952596E-2,1.203564048E0
5.396408402E1,8.498679161E0,1.544050097E0,2.932822406E-1
5.401408402E1,7.971673965E0,4.277570546E-1,3.555646539E-1
5.406408402E1,1.054202271E1,-5.328298211E-1,1.061576605E-2
5.411408402E1,1.385017872E1,-8.753832579E-1,1.778478861E0
5.416408402E1,1.213980675E1,-1.854854524E-1,-2.840281129E-1
5.421408402E1,1.170382977E1,1.834182441E-1,1.033842564E-3
5.426408402E1,1.173497105E1,-8.220043033E-3,9.280840755E-1
5.431408402E1,1.045099449E1,-2.645362616E-1,6.571176648E-2
5.436408402E1,8.045933723E0,2.771213278E-2,4.178470969E-1
5.441408402E1,8.625639915E0,7.104235291E-1,5.639712811E-1
5.446408402E1,9.380215645E0,5.547174215E-1,1.249078155E0
5.451408402E1,9.940757751E0,4.660846889E-1,2.429771870E-1
5.456408402E1,9.385005951E0,-1.399713606E-1,1.095767498E0
5.461408402E1,7.847109318E0,-7.289796323E-2,1.210750461E0
5.466408402E1,1.018749142E1,7.271918654E-1,-2.052545547E-2
5.471408402E1,1.096602249E1,1.000276446E0,8.658016324E-1
5.476408402E1,1.101153660E1,2.097685039E-1,4.489883184E-1
5.481408402E1,1.192900467E1,-4.298242629E-1,8.514287472E-1
5.486408402E1,9.423334122E0,-7.220726013E-1,5.612985790E-2
5.491408402E1,6.881731510E0,-3.435870409E-1,5.855306387E-1
5.496408402E1,8.220804214E0,-3.268187046E-1,4.633612037E-1
5.501408402E1,1.176371670E1,5.115988255E-1,3.148415387E-1
5.506408402E1,1.074324226E1,-5.855303407E-1,1.229914308E0
5.511408402E1,1.291354656E1,-1.411970496E0,1.790456295E0
5.516408402E1,1.027612400E1,5.427400470E-1,2.525590956E-1
5.521408402E1,8.798113823E0,2.361187786E-1,2.585755348E0
5.526408402E1,8.802905083E0,-8.727083355E-2,-3.415195942E-1
5.531408402E1,9.847333908E0,-1.009530067E0,8.083101511E-1
5.536408402E1,8.247154236E0,-6.142761111E-1,5.373437703E-2
5.541408402E1,1.084385300E1,1.331131905E-1,1.186795712E0
5.546408402E1,1.075522041E1,-1.255984902E-1,1.782992631E-1
5.551408402E1,1.171341133E1,5.406239629E-2,3.429323435E-3
5.556408402E1,9.967107773E0,1.232637882E0,-8.759884536E-2
5.561408402E1,9.643717766E0,4.277570546E-1,3.387963176E-1
5.566408402E1,9.624554634E0,1.474860758E-1,-4.804573059E-1
5.571408402E1,8.544193268E0,-3.771237433E-1,5.208526850E-1
5.576408402E1,6.908081532E0,-7.289796323E-2,-6.361634135E-1
5.581408402E1,5.832511902E0,1.211357936E-1,-1.762315780E-1
5.586408402E1,3.755631685E0,1.297315836E0,-7.322598994E-2
5.591408402E1,1.101393223E1,-9.783888459E-1,-6.603954732E-2
5.596408402E1,1.625044823E1,-1.347292542E0,1.922207594E0
5.601408402E1,1.359386253E1,2.217459083E-1,1.083790183E0
5.606408402E1,8.704690933E0,4.133841693E-1,-1.378761888E0
5.611408402E1,1.012281418E1,-1.663216203E-1,5.448074937E-1
5.616408402E1,8.546588898E0,1.402996331E-1,-5.406214297E-2
5.621408402E1,8.292668343E0,4.780620933E-1,9.161066413E-1
5.626408402E1,9.538316727E0,-2.645362616E-1,-7.894740701E-1
5.631408402E1,9.689231873E0,-6.571152806E-2,9.927619696E-1
5.636408402E1,9.809005737E0,5.068078637E-1,2.956777215E-1
5.641408402E1,7.006296158E0,1.369180083E0,-7.083050907E-2
5.646408402E1,7.655470848E0,1.306897640E0,1.567399502E-1
5.651408402E1,9.452079773E0,6.912597418E-1,3.651465774E-1
5.656408402E1,1.139481258E1,-1.107744694E0,1.011925817E0
5.661408402E1,1.178767109E1,-3.124458194E-1,-8.182198405E-1
5.666408402E1,9.926384926E0,8.062427044E-1,3.340053558E-1
5.671408402E1,8.101030350E0,1.002671957E0,-1.762315780E-1
5.676408402E1,9.471243858E0,3.654746115E-1,-4.732708931E-1
5.681408402E1,1.031684780E1,-5.495981574E-1,-4.927121103E-2
5.686408402E1,9.399379730E0,-7.292590737E-1,1.023903131E0
5.691408402E1,9.521548271E0,1.371575594E0,-3.010737896E-2
5.696408402E1,1.067137814E1,2.217459083E-1,-7.801695168E-2
5.701408402E1,9.923989296E0,1.187123775E0,-2.978941441E0
5.706408402E1,8.601684570E0,-2.309995443E-1,-7.065627575E0
5.711408402E1,1.033601093E1,-3.187020063E0,-1.637473464E0
5.716408402E1,8.522634506E0,-1.955744028E0,1.251473546E0
5.721408402E1,9.492802620E0,-2.257574320E0,1.560490370E0
5.726408402E1,5.542658806E0,7.727059722E-1,-3.439150453E-1
5.731408402E1,1.315069866E1,-1.090976357E0,4.058697224E-1
5.736408402E1,9.746724129E0,-2.501913071E0,5.649572372E0
5.741408402E1,9.691627502E0,-1.639261395E-1,4.056579113E0
5.746408402E1,1.124868870E1,-1.622772574E0,3.244511843E0
5.751408402E1,7.830340862E0,1.522770226E-1,-1.043672115E-1
5.756408402E1,8.905910492E0,9.212256670E-1,-2.181246996E0
5.761408402E1,9.327514648E0,-8.727083355E-2,-3.319376707E-1
5.766408402E1,7.818363667E0,1.270965576E0,-1.060163140E0
5.771408402E1,1.182120800E1,-1.366456389E0,-1.318847179E1
5.776408402E1,1.020186424E1,-5.088750720E-1,-1.189519048E0
5.781408402E1,9.844938278E0,-2.168941736E0,-1.527281523E0
5.786408402E1,9.382611275E0,4.085932076E-1,-8.373835683E-1
5.791408402E1,8.304645538E0,4.756666124E-1,-3.074760437E0
5.796408402E1,1.082708454E1,-1.464671016E0,-4.924069881E0
5.801408402E1,1.002939034E1,-1.165236115E0,-2.346534967E0
5.806408402E1,9.119108200E0,-7.580047846E-1,-3.853291035E0
5.811408402E1,9.279604912E0,1.307177246E-1,-3.551460743E0
5.816408402E1,8.996938705E0,2.816328406E-1,-3.903595924E0
5.821408402E1,8.953820229E0,4.277570546E-1,-7.104232907E-1
5.826408402E1,8.659176826E0,3.271469474E-1,-4.557561874E0
5.831408402E1,7.447064400E0,9.718101472E-2,-3.539483309E0
5.836408402E1,8.084261894E0,-1.016437039E-1,-7.281220913E0
5.841408402E1,7.930951118E0,2.984012067E-1,-3.676025629E0
5.846408402E1,9.636531830E0,-3.100503385E-1,-3.144229412E0
5.851408402E1,8.443583488E0,-9.664114118E-1,-3.702375889E0
5.856408402E1,7.866272926E0,-5.016885996E-1,-5.963707447E0
5.861408402E1,8.548984528E0,-1.150863290E0,-9.810846329E0
5.866408402E1,7.746499062E0,-1.320942283E0,-6.914712429E0
5.871408402E1,5.192918777E0,-8.538239598E-1,-5.237877846E0
5.876408402E1,8.431606293E0,-3.594251394E0,-6.634441853E0
5.881408402E1,7.351244926E0,-3.747282624E-1,-3.481991768E0
5.886408402E1,7.887832165E0,8.041266352E-2,-2.126151085E0
5.891408402E1,6.560737133E0,2.068659782E0,-8.153175354E0
5.896408402E1,7.954905510E0,2.763348579E0,-8.399909973E0
5.901408402E1,7.679425716E0,2.382467508E0,-6.888362408E0
5.906408402E1,7.334476948E0,1.934513092E0,-7.125514507E0
5.911408402E1,7.459041595E0,3.487062454E-1,-7.824994564E0
5.916408402E1,6.227765560E0,-6.957223415E-1,-6.241583347E0
5.921408402E1,3.813122988E0,-2.545031786E0,-4.147934914E0
5.926408402E1,3.834682465E0,1.052976966E0,-7.654915333E0
5.931408402E1,5.085122585E0,1.201496601E0,-5.520544052E0
5.936408402E1,6.282861710E0,1.996795416E0,-1.205061913E1
5.941408402E1,6.668533802E0,2.334558010E0,-8.143593788E0
5.946408402E1,5.238432884E0,2.653156757E0,-1.023484612E1
5.951408402E1,3.472965002E0,3.127461433E0,-6.473944664E0
5.956408402E1,4.500625610E0,7.080280781E-1,-9.029920578E0
5.961408402E1,4.785687447E0,-3.340051472E-1,-9.808451653E0
5.966408402E1,4.931811810E0,5.020169020E-1,-9.061061859E0
5.971408402E1,4.170049667E0,1.268570065E0,-8.500519753E0
5.976408402E1,4.586863041E0,2.025541306E0,-9.259886742E0
5.981408402E1,3.427451134E0,3.347845316E0,-6.838057518E0
5.986408402E1,4.553326130E0,1.704547167E0,-7.053650379E0
5.991408402E1,2.957937241E0,6.697003841E-1,-9.118553162E0
5.996408402E1,3.355586767E0,5.619038939E-1,-9.509016037E0
6.001408402E1,3.813122988E0,1.196705699E0,-9.329355240E0
6.006408402E1,3.104061365E0,2.583687782E0,-7.932791233E0
6.011408402E1,3.880196571E0,2.432772636E0,-7.499209404E0
6.016408402E1,3.932897091E0,2.974150658E0,-1.405563450E1
6.021408402E1,4.328151226E0,-3.196322620E-1,-9.085016251E0
6.026408402E1,2.778276443E0,-3.723327816E-1,-6.641628265E0
6.031408402E1,4.936602592E0,1.618589461E-1,-1.020370483E1
6.036408402E1,3.202275991E0,1.189519286E0,-9.192812920E0
6.041408402E1,3.753236055E0,5.690903068E-1,-8.955660820E0
6.046408402E1,4.416783810E0,6.888642311E-1,-7.959141254E0
6.051408402E1,3.597529888E0,1.091304660E0,-8.208271980E0
6.056408402E1,4.447925091E0,5.978360772E-1,-8.165152550E0
6.061408402E1,3.324445486E0,3.487062454E-1,-8.768813133E0
6.066408402E1,3.882591963E0,1.307177246E-1,-8.352000237E0
6.071408402E1,4.208377361E0,-1.136211008E-1,-8.165152550E0
6.076408402E1,4.040693760E0,2.217459083E-1,-8.914937973E0
6.081408402E1,4.665913582E0,4.876439869E-1,-1.057500458E1
6.086408402E1,3.405891657E0,8.852934837E-1,-7.832180500E0
6.091408402E1,4.498229980E0,7.271918654E-1,-8.833491325E0
6.096408402E1,3.913733244E0,8.900844455E-1,-1.022047329E1
6.101408402E1,4.282637119E0,1.086513638E0,-9.772519112E0
6.106408402E1,4.795269489E0,-6.621856689E-1,-7.662101746E0
6.111408402E1,2.538728476E0,1.462603807E0,-1.030910587E1
6.116408402E1,3.669394255E0,7.846833467E-1,-9.983321190E0
6.121408402E1,3.702931166E0,1.882092059E-1,-8.371164322E0
6.126408402E1,3.449010372E0,1.115538850E-1,-8.445424080E0
6.131408402E1,3.346004725E0,-1.591351777E-1,-8.735277176E0
6.136408402E1,3.908942223E0,5.786722302E-1,-1.044325256E1
6.141408402E1,3.544829369E0,5.810676813E-1,-9.370079041E0
6.146408402E1,3.786772728E0,5.307626724E-1,-9.185626984E0
6.151408402E1,2.612988234E0,7.415647507E-1,-7.185401917E0
6.156408402E1,2.294389725E0,1.043395042E0,-1.064207745E1
6.161408402E1,3.743654251E0,5.885335803E-2,-1.086725235E1
6.166408402E1,2.541123867E0,2.313278168E-1,-8.213062286E0
6.171408402E1,2.981892109E0,-8.226827383E-1,-9.552134514E0
6.176408402E1,2.529146671E0,-2.405814528E-1,-9.420383453E0
6.181408402E1,3.245394707E0,-3.340051472E-1,-8.395118713E0
6.186408402E1,1.005622268E0,4.636892080E-1,-8.898169518E0
6.191408402E1,1.863203645E0,-6.933268905E-1,-1.051511765E1
6.196408402E1,9.696900845E-1,-2.525588572E-1,-7.137492180E0
6.201408402E1,1.226006389E0,-6.621856689E-1,-1.041211224E1
6.206408402E1,2.902841330E0,-1.327849180E-1,-1.139904881E1
6.211408402E1,1.127791762E0,6.409546733E-1,-9.956971169E0
6.216408402E1,2.162638426E0,-1.258659840E0,-1.011267662E1
6.221408402E1,4.474757612E-1,-2.977934852E-2,-8.308881760E0
6.226408402E1,1.604491949E0,7.271918654E-1,-8.174735069E0
6.231408402E1,2.064423800E0,-1.567397118E-1,-9.568902969E0
6.236408402E1,1.968604684E0,5.044124126E-1,-1.022766018E1
6.241408402E1,2.591428995E0,-5.855303407E-1,-8.931706429E0
6.246408402E1,1.769780040E0,-4.250333309E-1,-8.040588379E0
6.251408402E1,3.647835016E0,5.187852383E-1,-1.158110523E1
6.256408402E1,2.924400568E0,-9.445726871E-2,-7.420158386E0
6.261408402E1,2.167429209E0,-2.765136361E-1,-8.440632820E0
6.266408402E1,3.686162710E0,-1.565281034E0,-1.353581619E1
6.271408402E1,1.860808134E0,5.762767196E-1,-8.996383667E0
6.276408402E1,1.448785901E0,-1.160165817E-1,-8.546033859E0
6.281408402E1,2.469259501E0,2.744464278E-1,-9.643162727E0
6.286408402E1,1.911113262E0,2.552825809E-1,-8.143593788E0
6.291408402E1,2.462073088E0,-1.057439566E0,-9.619208336E0
6.296408402E1,2.490818977E0,3.415198028E-1,-9.322169304E0
6.301408402E1,2.277621269E0,5.259717107E-1,-8.584362030E0
6.306408402E1,2.097960472E0,-5.256434083E-1,-7.604610443E0
6.311408402E1,1.978186607E0,-4.370107055E-1,-7.676474571E0
6.316408402E1,2.438118458E0,4.205706120E-1,-1.033545685E1
6.321408402E1,2.169824839E0,-2.573498189E-1,-9.554530144E0
6.326408402E1,2.392604351E0,1.259267628E-1,-9.473084450E0
6.331408402E1,2.816603899E0,2.049775571E-1,-9.659931183E0
6.336408402E1,2.406977177E0,8.972708583E-1,-8.694553375E0
6.341408402E1,2.018909693E0,-1.663216203E-1,-6.670373917E0
6.346408402E1,2.605801821E0,2.984012067E-1,-1.025880146E1
6.351408402E1,2.380626917E0,3.558926880E-1,-8.009447098E0
6.356408402E1,2.442909241E0,3.463107646E-1,-9.137717247E0
6.361408402E1,2.399790764E0,8.637341857E-1,-8.232226372E0
6.366408402E1,2.090774059E0,-3.268187046E-1,-9.710236549E0
6.371408402E1,1.750616193E0,-6.118806005E-1,-9.887501717E0
6.376408402E1,1.884763002E0,6.364431232E-2,-1.063010025E1
6.381408402E1,1.712288499E0,4.085932076E-1,-9.444338799E0
6.386408402E1,1.518254757E0,4.565027952E-1,-8.160362244E0
6.391408402E1,1.697915673E0,-1.351803988E-1,-9.417987823E0
6.396408402E1,1.805712223E0,5.139942765E-1,-1.012225914E1
6.401408402E1,1.319429994E0,8.014517426E-1,-9.767727852E0
6.406408402E1,9.744810462E-1,5.283671618E-1,-9.573694229E0
6.411408402E1,1.690729141E0,1.335643411E0,-1.004081249E1
6.416408402E1,1.010413289E0,-1.301100012E-2,-9.446733475E0
6.421408402E1,9.241759777E-1,4.301525354E-1,-9.063457489E0
6.426408402E1,1.460763216E0,1.129632235E0,-9.223954201E0
6.431408402E1,1.029577136E0,5.523219705E-1,-9.001174927E0
6.436408402E1,1.369735122E0,2.025820762E-1,-1.054625893E1
6.441408402E1,1.223610878E0,7.247964144E-1,-8.982010841E0
6.446408402E1,9.457353354E-1,7.918698192E-1,-8.773604393E0
6.451408402E1,1.590119123E0,3.846384287E-1,-9.782100677E0
6.456408402E1,1.230797291E0,1.977911144E-1,-9.439547539E0
6.461408402E1,1.436808467E0,5.092033148E-1,-9.374869347E0
6.466408402E1,1.336198330E0,8.613386750E-1,-9.396429062E0
6.471408402E1,1.585328102E0,6.697003841E-1,-8.917333603E0
6.476408402E1,1.216424465E0,4.876439869E-1,-1.106128693E1
6.481408402E1,1.309848070E0,4.277570546E-1,-8.823909760E0
6.486408402E1,1.935068011E0,4.948304594E-1,-9.549739838E0
6.491408402E1,1.443994880E0,5.666948557E-1,-9.540157318E0
6.496408402E1,1.293079734E0,8.325929642E-1,-9.099389076E0
6.501408402E1,1.820085049E0,4.133841693E-1,-7.913627148E0
6.506408402E1,1.618864894E0,2.600735426E-1,-9.743773460E0
6.511408402E1,1.523045659E0,5.166692287E-2,-9.219163895E0
6.516408402E1,1.779361963E0,9.619488120E-1,-9.722213745E0
6.521408402E1,1.156537533E0,6.409546733E-1,-9.264678001E0
6.526408402E1,1.621260285E0,8.445703387E-1,-9.532971382E0
6.531408402E1,1.139769077E0,6.529320478E-1,-9.942598343E0
6.536408402E1,1.043949962E0,3.247514665E-1,-1.121938801E1
6.541408402E1,1.503881931E0,5.235762000E-1,-9.386846542E0
6.546408402E1,2.059632778E0,1.445835471E0,-9.259886742E0
6.551408402E1,1.860808134E0,-4.394061863E-1,-9.370079041E0
6.556408402E1,1.503881931E0,-2.498839423E-2,-9.894688606E0
6.561408402E1,1.408062696E0,8.972708583E-1,-8.977220535E0
6.566408402E1,-5.418568850E-1,-4.873157740E-1,-6.074177027E-1
6.571408402E1,1.870390058E0,-3.268187046E-1,-9.681490898E0
6.576408402E1,2.629756689E0,1.872230649E0,-6.979390621E0
6.581408402E1,1.645215154E0,-1.380829215E0,-9.729400635E0
6.586408402E1,2.184197664E0,9.667397738E-1,-9.861151695E0
6.591408402E1,2.222525358E0,1.103281975E0,-1.036899281E1
6.596408402E1,1.724265933E0,1.623100877E0,-1.016537762E1
6.601408402E1,1.959022760E0,2.528871000E-1,-5.324114799E0
6.606408402E1,9.577127099E-1,-7.196771502E-1,-1.105889130E1
6.611408402E1,2.033282518E0,-8.514284492E-1,-1.043127537E1
6.616408402E1,2.354276657E0,-7.529344410E-2,-8.847864151E0
6.621408402E1,2.435722828E0,4.038022459E-1,-8.795164108E0
6.626408402E1,1.834457874E0,2.169549465E-1,-9.403614998E0
6.631408402E1,2.514773607E0,5.331581235E-1,-1.199312782E1
6.636408402E1,2.677666187E0,6.169998646E-1,-8.363977432E0
6.641408402E1,2.795044661E0,-6.331604719E-2,-8.979615211E0
6.646408402E1,2.095564842E0,-4.441971481E-1,-7.983095646E0
6.651408402E1,2.656106949E0,1.019719690E-1,-9.413197517E0
6.656408402E1,2.668084383E0,-1.711125821E-1,-8.972429276E0
6.661408402E1,3.080106735E0,-2.190221548E-1,-9.283841133E0
6.666408402E1,2.890863895E0,8.999457955E-2,-9.188022614E0
6.671408402E1,3.202275991E0,6.843526661E-2,-9.724609375E0
6.676408402E1,2.699225664E0,-3.651463687E-1,-8.239412308E0
6.681408402E1,2.857327223E0,5.547174215E-1,-8.169943810E0
6.686408402E1,2.188988686E0,-1.033484817E0,-1.038576126E1
6.691408402E1,2.818999529E0,-2.166266739E-1,-8.268158913E0
6.696408402E1,2.910027742E0,-7.723776698E-1,-1.042408943E1
6.701408402E1,2.383022308E0,-3.004684448E-1,-9.635976791E0
6.706408402E1,2.085983038E0,-4.415222257E-2,-9.607231140E0
6.711408402E1,2.076401234E0,-2.980729640E-1,-9.693468094E0
6.716408402E1,2.220129728E0,-2.453724146E-1,-1.047439384E1
6.721408402E1,2.327926397E0,-6.717675924E-1,-9.403614998E0
6.726408402E1,2.143474579E0,3.489857167E-2,-1.009351349E1
6.731408402E1,1.645215154E0,-4.370107055E-1,-1.018693638E1
6.736408402E1,2.018909693E0,5.714857578E-1,-8.761627197E0
6.741408402E1,1.513463736E0,-3.457030654E-2,-1.082173824E1
6.746408402E1,1.939858913E0,-9.568295479E-1,-9.190417290E0
6.751408402E1,2.162638426E0,1.175146341E0,-8.352000237E0
6.756408402E1,1.863203645E0,5.235762000E-1,-9.367683411E0
6.761408402E1,1.611678362E0,7.176100016E-1,-9.190417290E0
6.766408402E1,1.973395705E0,6.912597418E-1,-9.432360649E0
6.771408402E1,1.324221015E0,-2.094402313E-1,-9.073039055E0
6.776408402E1,2.514773607E0,1.247010708E0,-9.372473717E0
6.781408402E1,1.470345140E0,6.385591626E-1,-9.219163895E0
6.786408402E1,1.872785568E0,7.966607809E-1,-9.341332436E0
6.791408402E1,2.356672049E0,8.733161092E-1,-9.283841133E0
6.796408402E1,1.340989351E0,1.858137250E-1,-9.990507126E0
6.801408402E1,1.913508654E0,7.727059722E-1,-8.986802101E0
6.806408402E1,1.733847857E0,-2.019743621E-2,-9.834801674E0
6.811408402E1,2.069214582E0,9.403894544E-1,-9.068248749E0
6.816408402E1,1.654797077E0,8.397793770E-1,-9.214372635E0
6.821408402E1,2.030887127E0,3.966158330E-1,-9.743773460E0
6.826408402E1,2.035677910E0,1.450905949E-1,-9.065853119E0
6.831408402E1,1.755407095E0,2.001865953E-1,-9.933015823E0
6.836408402E1,1.446390390E0,2.480961531E-1,-9.830010414E0
6.841408402E1,2.124310732E0,6.792823076E-1,-9.444338799E0
6.846408402E1,2.337508202E0,1.225451469E0,-9.094598770E0
6.851408402E1,1.326616406E0,3.558926880E-1,-9.384451866E0
6.856408402E1,1.961418271E0,6.673049331E-1,-9.025129318E0
6.861408402E1,2.023700714E0,2.648645043E-1,-9.013152122E0
6.866408402E1,8.523116708E-1,6.603979319E-2,-1.156194115E1
6.871408402E1,1.755407095E0,-3.217482939E-2,-9.288632393E0
6.876408402E1,1.405667305E0,6.361637115E-1,-9.633581161E0
6.881408402E1,1.513463736E0,6.720958948E-1,-8.529265404E0
6.886408402E1,1.860808134E0,7.104235291E-1,-9.441943169E0
6.891408402E1,1.537418604E0,3.750565052E-1,-1.006237221E1
6.896408402E1,1.614073873E0,-1.991676211E0,-1.057021332E1
6.901408402E1,1.400876284E0,1.110468507E0,-8.272949219E0
6.906408402E1,1.609282970E0,1.355086714E-1,-9.652745247E0
6.911408402E1,1.470345140E0,3.415198028E-1,-9.037107468E0
6.916408402E1,5.480858684E-1,9.355985522E-1,-3.388568163E0
6.921408402E1,1.870390058E0,1.199101210E0,-1.080017948E1
6.926408402E1,1.463158727E0,1.206287622E0,-8.993988037E0
6.931408402E1,1.436808467E0,4.565027952E-1,-1.032347870E1
6.936408402E1,1.652401567E0,-5.373413488E-2,-9.293423653E0
6.941408402E1,1.070300221E0,1.307177246E-1,-9.082621574E0
6.946408402E1,9.696900845E-1,1.575191259E0,-9.032316208E0
6.951408402E1,1.815294027E0,1.098491073E0,-9.413197517E0
6.956408402E1,1.489508986E0,1.213474035E0,-9.487457275E0
6.961408402E1,1.592514634E0,1.307177246E-1,-9.700654984E0
6.966408402E1,1.635633230E0,1.084118247E0,-8.926915169E0
6.971408402E1,8.307523131E-1,8.972708583E-1,-9.233536720E0
6.976408402E1,1.384107947E0,1.000276446E0,-9.904270172E0
6.981408402E1,1.470345140E0,5.690903068E-1,-9.633581161E0
6.986408402E1,1.192469716E0,4.277570546E-1,-1.000487995E1
6.991408402E1,8.331478238E-1,8.613386750E-1,-7.880090237E0
6.996408402E1,1.652401567E0,1.510513425E0,-1.009830379E1
7.001408402E1,1.575746179E0,4.397344291E-1,-9.564112663E0
7.006408402E1,1.297870755E0,5.115988255E-1,-8.967638016E0
7.011408402E1,1.918299675E0,7.631240487E-1,-9.755750656E0
7.016408402E1,1.573350787E0,1.060163379E0,-9.343728065E0
7.021408402E1,1.714684010E0,1.354807258E0,-9.094598770E0
7.026408402E1,1.894344926E0,7.224009633E-1,-9.815637589E0
7.031408402E1,1.467949748E0,2.457007021E-1,-1.014860916E1
7.036408402E1,1.537418604E0,3.439152837E-1,-9.439547539E0
7.041408402E1,1.237983704E0,1.129632235E0,-8.855051041E0
7.046408402E1,1.994954944E0,1.460208297E0,-1.013184071E1
7.051408402E1,1.019995213E0,7.703105211E-1,-9.434756279E0
7.056408402E1,2.236898184E0,3.968952596E-2,-9.810846329E0
7.061408402E1,1.822480559E0,1.038604140E0,-8.783185959E0
7.066408402E1,1.182887793E0,1.661428571E0,-8.936496735E0
7.071408402E1,1.618864894E0,9.499713778E-1,-9.887501717E0
7.076408402E1,1.398480773E0,5.307626724E-1,-9.432360649E0
7.081408402E1,1.496695399E0,1.182332873E0,-9.336542130E0
7.086408402E1,2.521960020E0,2.128546953E0,-9.722213745E0
7.091408402E1,1.575746179E0,1.060163379E0,-1.074987411E1
7.096408402E1,1.312243581E0,1.409903288E0,-8.220249176E0
7.101408402E1,9.768765569E-1,1.781202435E0,-8.931706429E0
7.106408402E1,1.501486421E0,5.810676813E-1,-9.765332222E0
7.111408402E1,1.226006389E0,1.352411747E0,-9.602439880E0
7.116408402E1,1.312243581E0,1.388343930E0,-9.683886528E0
7.121408402E1,1.499090910E0,1.091304660E0,-8.656226158E0
7.126408402E1,2.014118671E0,9.547623396E-1,-1.001925373E1
7.131408402E1,1.580537200E0,1.417089701E0,-8.867028236E0
7.136408402E1,1.077486634E0,1.081722736E0,-9.276655197E0
7.141408402E1,1.271520495E0,1.678196907E0,-9.887501717E0
7.146408402E1,1.705102086E0,1.134423256E0,-8.967638016E0
7.151408402E1,7.852382660E-1,1.905767322E0,-9.053874969E0
7.156408402E1,2.042864323E0,1.881812572E0,-9.427570343E0
7.161408402E1,9.361534119E-1,7.846833467E-1,-8.749650002E0
7.166408402E1,1.573350787E0,1.182332873E0,-9.777310371E0
7.171408402E1,1.688333750E0,1.314084172E0,-9.259886742E0
7.176408402E1,1.860808134E0,1.814739108E0,-8.728090286E0
7.181408402E1,1.558977842E0,5.954405665E-1,-9.120948792E0
7.186408402E1,2.900445700E0,2.720509470E-1,-9.326959610E0
7.191408402E1,1.254752159E0,1.671010494E0,-1.008872223E1
7.196408402E1,2.641734123E0,1.532072663E0,-8.569989204E0
7.201408402E1,1.966209173E0,1.443439960E0,-8.876609802E0
7.206408402E1,2.112333298E0,1.215869546E0,-9.798869133E0
7.211408402E1,2.016514301E0,7.918698192E-1,-9.372473717E0
7.216408402E1,1.527836680E0,4.612937570E-1,-9.772519112E0
7.221408402E1,2.244084597E0,2.334558010E0,-9.027524948E0
7.226408402E1,1.477531552E0,1.821925640E0,-9.324564934E0
7.231408402E1,2.498005390E0,1.582377672E0,-9.228745461E0
7.236408402E1,2.387813330E0,1.824321032E0,-1.002643967E1
7.241408402E1,2.085983038E0,8.325929642E-1,-8.747254372E0
7.246408402E1,2.718389273E0,9.978809357E-1,-9.865942955E0
7.251408402E1,3.669394255E0,1.512908816E0,-9.475480080E0
7.256408402E1,3.027406216E0,1.527281761E0,-9.540157318E0
7.261408402E1,2.536333084E0,2.293834925E0,-7.913627148E0
7.266408402E1,3.058547258E0,1.359598279E0,-9.612022400E0
7.271408402E1,3.178321362E0,1.508117914E0,-9.966552734E0
7.276408402E1,2.517169237E0,9.140391946E-1,-8.725694656E0
7.281408402E1,3.235812664E0,1.208683133E0,-9.463501930E0
7.286408402E1,2.040468931E0,1.400321364E0,-8.831095695E0
7.291408402E1,2.792649269E0,1.136818767E0,-8.967638016E0
7.296408402E1,2.890863895E0,1.575191259E0,-9.564112663E0
7.301408402E1,2.349485636E0,1.328456998E0,-9.173649788E0
7.306408402E1,2.687248230E0,2.502241373E0,-7.848948956E0
7.311408402E1,2.203361511E0,1.323666096E0,-8.718508720E0
7.316408402E1,5.327065945E0,1.939303994E0,-1.122178364E1
7.321408402E1,2.191384077E0,1.397925854E0,-9.966552734E0
7.326408402E1,2.162638426E0,1.968049765E0,-8.819118500E0
7.331408402E1,1.973395705E0,1.568004847E0,-9.183231354E0
7.336408402E1,2.112333298E0,1.663823962E0,-9.286236763E0
7.341408402E1,2.291994095E0,1.002671957E0,-9.501830101E0
7.346408402E1,1.915904164E0,2.727416515E0,-8.409491539E0
7.351408402E1,1.872785568E0,8.565477133E-1,-1.012704945E1
7.356408402E1,2.337508202E0,1.529677153E0,-9.755750656E0
7.361408402E1,1.645215154E0,1.441044450E0,-6.988972664E0
7.366408402E1,2.188988686E0,1.587168694E0,-9.216768265E0
7.371408402E1,2.208152533E0,9.403894544E-1,-9.561717033E0
7.376408402E1,1.925486088E0,9.643442631E-1,-9.199999809E0
7.381408402E1,2.275225878E0,1.237428784E0,-9.592858315E0
7.386408402E1,2.361463070E0,9.787171483E-1,-8.831095695E0
7.391408402E1,2.354276657E0,1.160773516E0,-8.735277176E0
7.396408402E1,1.949440837E0,1.040999532E0,-9.046689034E0
7.401408402E1,1.920695186E0,2.073730379E-1,-9.516202927E0
7.406408402E1,2.220129728E0,4.804575741E-1,-1.048637199E1
7.411408402E1,1.484718084E0,1.407507777E0,-9.667118073E0
7.416408402E1,1.865599155E0,1.086513638E0,-8.225039482E0
7.421408402E1,2.047655344E0,5.355536342E-1,-1.113315105E1
7.426408402E1,1.961418271E0,2.771213278E-2,-8.591547966E0
7.431408402E1,1.489508986E0,1.654242039E0,-9.379660606E0
7.436408402E1,1.317034602E0,2.720509470E-1,-9.482666016E0
7.441408402E1,2.153056383E0,1.194310188E0,-1.081694794E1
7.446408402E1,1.664378881E0,9.715306759E-1,-1.017495918E1
7.451408402E1,1.321825504E0,5.187852383E-1,-9.310192108E0
7.456408402E1,9.744810462E-1,1.678196907E0,-9.367683411E0
7.461408402E1,1.920695186E0,-1.031089306E0,-1.106847286E1
7.466408402E1,2.031369805E-1,1.623100877E0,-8.373559952E0
7.471408402E1,2.138683558E0,2.217459083E-1,-8.402305603E0
7.476408402E1,7.720149040E0,1.238598633E1,1.223474216E1
7.481408402E1,3.995662034E-1,9.595533013E-1,-1.180867577E1
7.486408402E1,9.241759777E-1,3.493969679E0,-4.763572693E0
7.491408402E1,1.925486088E0,1.568004847E0,-1.305671978E1
7.496408402E1,3.504106283E0,9.355985522E-1,-7.113537312E0
7.501408402E1,1.705102086E0,2.432772636E0,-8.090892792E0
7.506408402E1,2.512378216E0,-9.924823046E-2,-9.372473717E0
7.511408402E1,3.777190924E0,1.450626373E0,-9.051480293E0
7.516408402E1,2.418954611E0,1.187123775E0,-8.974824905E0
7.521408402E1,1.968604684E0,3.223559856E-1,-9.741377831E0
7.526408402E1,3.930501461E0,6.936551929E-1,-1.055344486E1
7.531408402E1,2.385417938E0,9.332030416E-1,-9.192812920E0
7.536408402E1,2.030887127E0,3.079831302E-1,-9.983321190E0
7.541408402E1,2.363858461E0,1.373971105E0,-9.465897560E0
7.546408402E1,2.093169451E0,1.060163379E0,-8.409491539E0
7.551408402E1,2.581847191E0,1.781202435E0,-8.819118500E0
7.556408402E1,2.217734337E0,6.553275585E-1,-9.559321404E0
7.561408402E1,2.591428995E0,9.260166287E-1,-1.029952431E1
7.566408402E1,2.220129728E0,1.987213612E0,-8.332836151E0
7.571408402E1,4.361687660E0,2.157292604E0,-9.717423439E0
7.576408402E1,2.114728689E0,1.953956336E-1,-9.875524521E0
7.581408402E1,2.033282518E0,5.020169020E-1,-8.668203354E0
7.586408402E1,2.938773394E0,6.361637115E-1,-7.978305340E0
7.591408402E1,3.549620390E0,1.122445822E0,-1.023005581E1
7.596408402E1,3.381937027E0,1.750061274E0,-8.852655411E0
7.601408402E1,3.166343927E0,6.888642311E-1,-9.427570343E0
7.606408402E1,3.252581120E0,9.978809357E-1,-8.723299026E0
7.611408402E1,3.827496052E0,4.636892080E-1,-1.068280125E1
7.616408402E1,2.435722828E0,2.052569762E-2,-7.020113468E0
7.621408402E1,3.391518831E0,1.582377672E0,-1.015819073E1
7.626408402E1,2.639338493E0,3.534972072E-1,-8.265763283E0
7.631408402E1,3.259767532E0,3.678700924E-1,-9.549739838E0
7.636408402E1,3.736467838E0,8.086381555E-1,-9.403614998E0
7.641408402E1,2.323135376E0,1.299711227E0,-8.335231781E0
7.646408402E1,3.908942223E0,4.208500683E-2,-1.005518532E1
7.651408402E1,2.996264935E0,2.552825809E-1,-8.953265190E0
7.656408402E1,3.223835230E0,5.858586431E-1,-9.322169304E0
7.661408402E1,2.950750828E0,1.187403128E-1,-9.034711838E0
7.666408402E1,3.132807255E0,1.603937030E0,-8.215457916E0
7.671408402E1,3.623880148E0,1.534468174E0,-9.889897346E0
7.676408402E1,3.678976297E0,-3.340051472E-1,-7.887277126E0
7.681408402E1,3.705326557E0,-9.206179529E-2,-1.000248528E1
7.686408402E1,2.941168785E0,1.094378624E-2,-8.970033646E0
7.691408402E1,3.693349123E0,1.651846647E0,-8.476565361E0
7.696408402E1,3.034592628E0,1.206287622E0,-8.157966614E0
7.701408402E1,3.511292696E0,2.001865953E-1,-9.837197304E0
7.706408402E1,2.893259287E0,7.562170178E-2,-7.664497375E0
7.711408402E1,3.420264482E0,1.184728265E0,-9.738982201E0
7.716408402E1,3.118434191E0,1.357202768E0,-9.053874969E0
7.721408402E1,3.207067013E0,7.080280781E-1,-8.893378258E0
7.726408402E1,3.456196785E0,3.175650239E-1,-9.875524521E0
7.731408402E1,2.857327223E0,1.007462859E0,-8.522079468E0
7.736408402E1,3.520874739E0,1.829112053E0,-9.367683411E0
7.741408402E1,2.912423134E0,1.088909149E0,-8.723299026E0
7.746408402E1,2.936378002E0,1.129632235E0,-9.336542130E0
7.751408402E1,3.451405764E0,1.429067135E0,-9.065853119E0
7.756408402E1,2.874095440E0,1.091304660E0,-8.680180550E0
7.761408402E1,3.056151867E0,6.241863370E-1,-8.924519539E0
7.766408402E1,3.118434191E0,8.445703387E-1,-9.707840919E0
7.771408402E1,2.854931593E0,8.637341857E-1,-8.352000237E0
7.776408402E1,3.781981945E0,5.427400470E-1,-1.037857533E1
7.781408402E1,3.022615194E0,4.541073143E-1,-8.177130699E0
7.786408402E1,3.168739319E0,1.400321364E0,-8.385537148E0
7.791408402E1,3.003451347E0,1.855462313E0,-9.827614784E0
7.796408402E1,2.989078522E0,1.227846861E0,-7.712407112E0
7.801408402E1,3.511292696E0,6.601185203E-1,-9.597648621E0
7.806408402E1,2.929191589E0,9.020618200E-1,-9.070643425E0
7.811408402E1,3.870614529E0,5.235762000E-1,-9.789287567E0
7.816408402E1,2.605801821E0,1.888998985E0,-7.343503475E0
7.821408402E1,3.758027077E0,1.908162832E0,-9.794077873E0
7.826408402E1,3.403496265E0,1.371575594E0,-8.522079468E0
7.831408402E1,3.233417273E0,1.292524815E0,-8.816722870E0
7.836408402E1,3.832286835E0,-4.894318059E-2,3.970341921E0
7.841408402E1,3.437032938E0,-3.459825218E-1,-8.349604607E0
7.846408402E1,3.808332205E0,8.548307233E-3,-8.799954414E0
7.851408402E1,3.578366280E0,1.862648726E0,-1.102295876E1
7.856408402E1,2.459677696E0,1.048186064E0,-8.268158913E0
7.861408402E1,3.348400116E0,6.457456350E-1,-9.966552734E0
7.866408402E1,2.521960020E0,5.786722302E-1,-8.112452507E0
7.871408402E1,3.956851721E0,-6.645811200E-1,-9.583275795E0
7.876408402E1,4.577280998E0,7.870788574E-1,-9.432360649E0
7.881408402E1,2.315948963E0,4.756666124E-1,-1.067561436E1
7.886408402E1,1.362548590E0,4.397344291E-1,-8.639457703E0
7.891408402E1,3.161552906E0,5.885335803E-2,-7.705220699E0
7.896408402E1,3.952060938E0,-2.094402313E-1,-8.991593361E0
7.901408402E1,2.898050308E0,1.355086714E-1,-1.013184071E1
7.906408402E1,3.005846739E0,-7.795641422E-1,-9.506621361E0
7.911408402E1,2.922004938E0,3.750565052E-1,-7.726779938E0
7.916408402E1,3.266953945E0,4.469208717E-1,-9.616812706E0
7.921408402E1,3.657417059E0,3.151695430E-1,-9.310192108E0
7.926408402E1,3.369959593E0,-1.019111991E0,-8.929310799E0
7.931408402E1,3.111247778E0,-9.206179529E-2,-9.559321404E0
7.936408402E1,3.578366280E0,4.708756506E-1,-9.461107254E0
7.941408402E1,3.552016020E0,1.251801729E0,-9.497038841E0
7.946408402E1,2.902841330E0,2.792373598E-1,-8.737671852E0
7.951408402E1,2.315948963E0,-6.571152806E-2,-9.319773674E0
7.956408402E1,3.027406216E0,1.331131905E-1,-9.156881332E0
7.961408402E1,2.167429209E0,-4.657564461E-1,-9.164067268E0
7.966408402E1,3.425055504E0,-3.268187046E-1,-9.497038841E0
7.971408402E1,3.187903166E0,8.134291172E-1,-9.942598343E0
7.976408402E1,3.195089579E0,1.573474333E-2,-9.578485489E0
7.981408402E1,2.102751493E0,2.720509470E-1,-8.761627197E0
7.986408402E1,2.682457209E0,4.253615737E-1,-9.552134514E0
7.991408402E1,2.814208508E0,-1.711125821E-1,-8.361581802E0
7.996408402E1,2.761507988E0,-6.286489367E-1,-9.765332222E0
8.001408402E1,2.775880814E0,-7.316545248E-1,-9.494643211E0
8.006408402E1,3.108852386E0,-5.612961575E-2,-8.982010841E0
8.011408402E1,2.941168785E0,5.307626724E-1,-9.324564934E0
8.016408402E1,3.118434191E0,1.091584042E-1,-8.802350044E0
8.021408402E1,2.727971315E0,-2.142311931E-1,-9.530575752E0
8.026408402E1,2.668084383E0,7.562170178E-2,-9.731796265E0
8.031408402E1,3.149575472E0,-6.142761111E-1,-8.328045845E0
8.036408402E1,2.675270796E0,-4.106604457E-1,-9.755750656E0
8.041408402E1,2.730366707E0,-4.415222257E-2,-8.859841347E0
8.046408402E1,2.862118006E0,1.283222437E-1,-9.727005005E0
8.051408402E1,2.617779255E0,-2.813045979E-1,-9.520994186E0
8.056408402E1,2.450095892E0,3.918248713E-1,-9.104180336E0
8.061408402E1,2.246479988E0,3.367288709E-1,-8.919728279E0
8.066408402E1,2.814208508E0,1.977911144E-1,-9.022734642E0
8.071408402E1,2.215338945E0,-2.022538036E-1,-8.847864151E0
8.076408402E1,2.601011038E0,5.810676813E-1,-9.511411667E0
8.081408402E1,2.524355650E0,1.906046867E-1,-9.161671638E0
8.086408402E1,2.668084383E0,3.511017263E-1,-9.314982414E0
8.091408402E1,2.577056170E0,-8.466374874E-1,-9.235931396E0
8.096408402E1,2.979496479E0,-1.950673610E-1,-8.950869560E0
8.101408402E1,2.608197451E0,2.531665564E-2,-8.304090500E0
8.106408402E1,2.656106949E0,7.200054526E-1,-8.124429703E0
8.111408402E1,3.013033152E0,-1.591351777E-1,-1.018454170E1
8.116408402E1,2.656106949E0,-1.002343655E0,-9.777310371E0
8.121408402E1,2.737553120E0,-3.196322620E-1,-8.998779297E0
8.126408402E1,1.736243248E0,-3.943991184E0,-9.568902969E0
8.131408402E1,2.933982372E0,1.817134619E0,-1.033306122E1
8.136408402E1,2.620174646E0,2.001865953E-1,-9.197604179E0
8.141408402E1,1.561373353E0,3.264003754E0,-5.556476116E0
8.146408402E1,2.948355198E0,4.804575741E-1,-1.213925171E1
8.151408402E1,3.310072660E0,-5.256434083E-1,-8.713717461E0
8.156408402E1,2.545914888E0,-2.309995443E-1,-9.245513916E0
8.161408402E1,2.615383863E0,-1.878809333E-1,-9.334146500E0
8.166408402E1,3.405891657E0,9.068527818E-1,-9.168858528E0
8.171408402E1,2.989078522E0,1.800366282E0,-8.883796692E0
8.176408402E1,2.253666639E0,3.055876493E-1,-7.645333767E0
8.181408402E1,3.137598038E0,-1.375758797E-1,-9.844383240E0
8.186408402E1,2.912423134E0,4.373389482E-1,-8.905355453E0
8.191408402E1,2.639338493E0,2.073730379E-1,-9.140112877E0
8.196408402E1,2.886072874E0,1.038604140E0,-8.701740265E0
8.201408402E1,2.960332632E0,4.541073143E-1,-1.054146767E1
8.206408402E1,2.452491283E0,4.205706120E-1,-8.850259781E0
8.211408402E1,2.605801821E0,-1.327849180E-1,-9.834801674E0
8.216408402E1,2.648920536E0,2.816328406E-1,-8.867028236E0
8.221408402E1,3.022615194E0,1.546725035E-1,-1.000487995E1
8.226408402E1,2.785462856E0,9.978809357E-1,-8.886192322E0
8.231408402E1,2.519564629E0,6.074179411E-1,-8.838282585E0
8.236408402E1,3.372354984E0,4.181751311E-1,-9.700654984E0
8.241408402E1,2.610592842E0,-6.092057377E-2,-9.058666229E0
8.246408402E1,2.486027956E0,1.570679843E-1,-9.164067268E0
8.251408402E1,3.041779041E0,6.912597418E-1,-9.178440094E0
8.256408402E1,2.720784903E0,9.978809357E-1,-8.989197731E0
8.261408402E1,2.718389273E0,6.002315283E-1,-1.000727558E1
8.266408402E1,2.876491070E0,4.253615737E-1,-9.003570557E0
8.271408402E1,2.605801821E0,6.577230096E-1,-8.617897987E0
8.276408402E1,3.187903166E0,1.642544121E-1,-1.082892513E1
8.281408402E1,2.969914675E0,-3.531689644E-1,-1.039055252E1
8.286408402E1,1.755407095E0,7.200054526E-1,-6.773379326E0
8.291408402E1,2.711202860E0,8.637341857E-1,-8.874214172E0
8.296408402E1,3.094479561E0,2.457007021E-1,-9.116157532E0
8.301408402E1,2.811813116E0,4.684801698E-1,-9.377264977E0
8.306408402E1,2.795044661E0,3.319379091E-1,-9.135321617E0
8.311408402E1,3.084897518E0,1.132027745E0,-9.331750870E0
8.316408402E1,2.814208508E0,7.607285976E-1,-9.305400848E0
8.321408402E1,2.708807468E0,1.666498929E-1,-1.010788631E1
8.326408402E1,2.883677483E0,3.151695430E-1,-8.098079681E0
8.331408402E1,2.567474127E0,-6.810700893E-2,-9.451524734E0
8.336408402E1,2.411768198E0,1.355086714E-1,-8.902959824E0
8.341408402E1,2.404581785E0,1.331131905E-1,-9.520994186E0
8.346408402E1,1.971000195E0,4.588982761E-1,-9.101784706E0
8.351408402E1,2.888468266E0,8.373839259E-1,-8.914937973E0
8.356408402E1,3.094479561E0,4.687596112E-2,-9.853964806E0
8.361408402E1,2.972310066E0,5.211807489E-1,-8.625084877E0
8.366408402E1,2.845349789E0,7.631240487E-1,-9.051480293E0
8.371408402E1,2.684852600E0,2.241413891E-1,-9.171254158E0
8.376408402E1,3.130411625E0,1.858137250E-1,-9.686282158E0
8.381408402E1,2.754321575E0,8.421748877E-1,-9.029920578E0
8.386408402E1,2.941168785E0,8.206155300E-1,-9.307796478E0
8.391408402E1,2.943564415E0,5.259717107E-1,-9.279050827E0
8.396408402E1,2.421350002E0,1.019440293E0,-8.157966614E0
8.401408402E1,3.154366493E0,7.535421848E-1,-9.396429062E0
8.406408402E1,2.979496479E0,4.085932076E-1,-9.307796478E0
8.411408402E1,2.517169237E0,4.852485359E-1,-9.312586784E0
8.416408402E1,2.857327223E0,2.912147641E-1,-9.358100891E0
8.421408402E1,2.823790312E0,6.649094224E-1,-9.394033432E0
8.426408402E1,2.842954159E0,5.235762000E-1,-9.118553162E0
8.431408402E1,2.735157728E0,3.391243517E-1,-8.835886955E0
8.436408402E1,2.711202860E0,6.026269794E-1,-1.031868839E1
8.441408402E1,3.008242369E0,-8.538239598E-1,-9.144903183E0
8.446408402E1,2.512378216E0,6.505365968E-1,-9.432360649E0
8.451408402E1,3.036988020E0,8.852934837E-1,-8.615503311E0
8.456408402E1,2.919609547E0,2.984012067E-1,-9.609626770E0
8.461408402E1,2.953146219E0,8.541522622E-1,-8.982010841E0
8.466408402E1,2.622570276E0,7.990562320E-1,-8.799954414E0
8.471408402E1,2.969914675E0,5.235762000E-1,-1.010069942E1
8.476408402E1,2.828581333E0,3.103785813E-1,-9.358100891E0
8.481408402E1,2.910027742E0,6.026269794E-1,-8.929310799E0
8.486408402E1,2.744739532E0,3.750565052E-1,-9.307796478E0
8.491408402E1,3.072920084E0,1.263779044E0,-9.564112663E0
8.496408402E1,2.636943102E0,7.942652702E-1,-8.637062073E0
8.501408402E1,2.883677483E0,4.996214211E-1,-9.326959610E0
8.506408402E1,3.029801607E0,2.720509470E-1,-9.125740051E0
8.511408402E1,3.113643408E0,2.169549465E-1,-1.010788631E1
8.516408402E1,2.706412077E0,7.535421848E-1,-8.478960991E0
8.521408402E1,2.883677483E0,1.067349792E0,-9.120948792E0
8.526408402E1,2.229711771E0,6.002315283E-1,-9.451524734E0
8.531408402E1,1.875181079E0,2.409097403E-1,-9.683886528E0
8.536408402E1,3.034592628E0,-1.061552204E-2,-9.257491112E0
8.541408402E1,2.756716967E0,-8.008439839E-2,-9.355706215E0
8.546408402E1,1.271520495E0,6.960506439E-1,-1.574444675E1
8.551408402E1,2.584242582E0,9.308075905E-1,-9.643162727E0
8.556408402E1,3.104061365E0,4.014067650E-1,-8.795164108E0
8.561408402E1,2.795044661E0,-7.124907374E-1,-9.195208549E0
8.566408402E1,2.677666187E0,-4.010785222E-1,-8.998779297E0
8.571408402E1,2.351881266E0,2.504916191E-1,-9.164067268E0
8.576408402E1,2.373440504E0,7.751014829E-1,-9.125740051E0
8.581408402E1,-1.384634495E1,-8.116914749E0,-7.828320312E1
8.586408402E1,3.786772728E0,4.061977267E-1,-8.361581802E0
8.591408402E1,1.750616193E0,1.570679843E-1,-9.976134300E0
8.596408402E1,2.684852600E0,-3.124458194E-1,-1.003362656E1
8.601408402E1,2.505191803E0,7.966607809E-1,-7.927999973E0
8.606408402E1,2.974705696E0,-3.124458194E-1,-9.686282158E0
8.611408402E1,2.318344355E0,1.144005179E0,-8.821514130E0
8.616408402E1,2.864513636E0,1.170355439E0,-1.043127537E1
8.621408402E1,2.557892323E0,7.822878957E-1,-8.536452293E0
8.626408402E1,2.002141237E0,1.163448468E-1,-9.259886742E0
8.631408402E1,3.036988020E0,3.654746115E-1,-9.171254158E0
8.636408402E1,2.641734123E0,7.056325674E-1,-8.481355667E0
8.641408402E1,2.993869305E0,5.115988255E-1,-9.590462685E0
8.646408402E1,2.493214369E0,1.081722736E0,-9.396429062E0
8.651408402E1,2.751926184E0,1.024231195E0,-9.731796265E0
8.656408402E1,2.608197451E0,8.397793770E-1,-8.263367653E0
8.661408402E1,2.739948750E0,1.081722736E0,-9.245513916E0
8.666408402E1,2.701621056E0,5.235762000E-1,-9.441943169E0
8.671408402E1,2.641734123E0,8.685251474E-1,-8.843072891E0
8.676408402E1,2.498005390E0,8.325929642E-1,-9.659931183E0
8.681408402E1,2.339903831E0,1.038604140E0,-9.731796265E0
8.686408402E1,2.589033604E0,1.048186064E0,-9.966552734E0
8.691408402E1,2.790253639E0,1.472185731E0,-9.451524734E0
8.696408402E1,2.562683344E0,1.357202768E0,-8.656226158E0
8.701408402E1,2.586637974E0,1.282942891E0,-8.986802101E0
8.706408402E1,2.823790312E0,6.816778183E-1,-9.355706215E0
8.711408402E1,2.409372568E0,7.751014829E-1,-8.761627197E0
8.716408402E1,2.574660778E0,1.213474035E0,-9.003570557E0
8.721408402E1,2.668084383E0,1.136818767E0,-9.473084450E0
8.726408402E1,3.166343927E0,1.285338402E0,-9.453920364E0
8.731408402E1,2.526751041E0,1.230242372E0,-8.953265190E0
8.736408402E1,2.581847191E0,1.671010494E0,-8.974824905E0
8.741408402E1,2.732762337E0,1.376366615E0,-9.092203140E0
8.746408402E1,2.694434643E0,9.619488120E-1,-9.413197517E0
8.751408402E1,2.572265148E0,1.153587103E0,-9.188022614E0
8.756408402E1,2.519564629E0,1.373971105E0,-9.264678001E0
8.761408402E1,2.665688753E0,1.642264724E0,-9.075434685E0
8.766408402E1,2.677666187E0,1.213474035E0,-8.862236977E0
8.771408402E1,2.435722828E0,1.304502249E0,-8.720904350E0
8.776408402E1,2.610592842E0,1.084118247E0,-9.420383453E0
8.781408402E1,2.462073088E0,1.163169026E0,-9.415593147E0
8.786408402E1,1.091859579E0,1.611123443E0,-9.671909332E0
8.791408402E1,2.378231525E0,1.254197121E0,-9.791683197E0
8.796408402E1,2.301576138E0,1.244615197E0,-9.664722443E0
8.801408402E1,2.569869757E0,1.239824295E0,-1.052469921E1
8.806408402E1,2.567474127E0,1.105677485E0,-8.596339226E0
8.811408402E1,2.507587194E0,1.201496601E0,-9.463501930E0
8.816408402E1,2.545914888E0,1.352411747E0,-8.958056450E0
8.821408402E1,2.687248230E0,1.024231195E0,-8.926915169E0
8.826408402E1,2.440513849E0,9.188301563E-1,-8.455005646E0
8.831408402E1,3.197484970E0,4.517118335E-1,-9.341332436E0
8.836408402E1,2.459677696E0,6.577230096E-1,-8.692157745E0
8.841408402E1,3.595134497E0,1.484163165E0,-8.708926201E0
8.846408402E1,2.917214155E0,1.522490740E0,-9.245513916E0
8.851408402E1,2.430932045E0,1.469790220E0,-9.226349831E0
8.856408402E1,2.505191803E0,1.067349792E0,-8.816722870E0
8.861408402E1,3.492128849E0,9.451804161E-1,-9.271863937E0
8.866408402E1,3.099270582E0,9.140391946E-1,-9.990507126E0
8.871408402E1,2.754321575E0,6.265817881E-1,-9.782100677E0
8.876408402E1,3.051360846E0,9.739261866E-1,-8.203480721E0
8.881408402E1,2.838163376E0,9.068527818E-1,-7.695638657E0
8.886408402E1,3.202275991E0,9.475759268E-1,-9.322169304E0
8.891408402E1,3.837077856E0,6.481410861E-1,-9.595253944E0
8.896408402E1,2.854931593E0,6.289772987E-1,-8.811932564E0
8.901408402E1,3.738863230E0,5.690903068E-1,-8.122034073E0
8.906408402E1,3.520874739E0,7.083074749E-2,-8.689763069E0
8.911408402E1,2.910027742E0,-1.279939711E-1,-1.074268818E1
8.916408402E1,3.961642742E0,1.786272973E-1,-1.050793076E1
8.921408402E1,3.808332205E0,1.163448468E-1,-9.022734642E0
8.926408402E1,3.403496265E0,1.810227633E-1,-7.566282749E0
8.931408402E1,4.093394279E0,7.367737889E-1,-8.478960991E0
8.936408402E1,3.506501913E0,3.247514665E-1,-9.853964806E0
8.941408402E1,3.861032724E0,-9.280837774E-1,-9.959366798E0
8.946408402E1,3.374750614E0,-5.687620044E-1,-8.395118713E0
8.951408402E1,3.722094774E0,-3.457030654E-2,-8.828700066E0
8.956408402E1,3.298095226E0,-1.543442309E-1,-9.295818329E0
8.961408402E1,2.828581333E0,2.169549465E-1,-9.477874756E0
8.966408402E1,3.070524693E0,-2.932820022E-1,-8.560406685E0
8.971408402E1,3.262162924E0,2.480961531E-1,-8.225039482E0
8.976408402E1,4.208377361E0,-6.331604719E-2,-8.934101105E0
8.981408402E1,4.026320934E0,-3.936126456E-2,-7.858531475E0
8.986408402E1,3.896964788E0,-9.903662205E-1,-8.716113091E0
8.991408402E1,3.092083931E0,-3.747282624E-1,-8.069334030E0
8.996408402E1,5.480376244E0,-5.999032259E-1,-1.080736542E1
9.001408402E1,3.568784237E0,5.044124126E-1,-8.028610229E0
9.006408402E1,3.343609333E0,-2.070447505E-1,-1.012704945E1
9.011408402E1,2.919609547E0,-8.969425559E-1,-9.111367226E0
9.016408402E1,3.587948084E0,-1.639261395E-1,-9.111367226E0
9.021408402E1,3.650230646E0,-4.897112250E-1,-8.766418457E0
9.026408402E1,3.710117579E0,-5.495981574E-1,-8.692157745E0
9.031408402E1,4.170049667E0,-3.603554070E-1,-7.798644543E0
9.036408402E1,3.453801394E0,-2.309995443E-1,-8.014237404E0
9.041408402E1,3.841868877E0,-4.226378500E-1,-8.356791496E0
9.046408402E1,3.973620176E0,-4.777338505E-1,-9.152090073E0
9.051408402E1,4.059857368E0,-3.819147050E-1,-9.041897774E0
9.056408402E1,4.093394279E0,-2.813045979E-1,-8.766418457E0
9.061408402E1,4.004761696E0,-4.322197437E-1,-8.464588165E0
9.066408402E1,4.239518642E0,-1.854854524E-1,-8.747254372E0
9.071408402E1,4.031111717E0,-3.914966285E-1,-8.867028236E0
9.076408402E1,3.834682465E0,-7.436319590E-1,-8.672994614E0
9.081408402E1,4.246705055E0,2.193504274E-1,-8.483751297E0
9.086408402E1,4.344919682E0,-5.951122642E-1,-8.843072891E0
9.091408402E1,3.923315048E0,-5.975077152E-1,-8.639457703E0
9.096408402E1,4.043089390E0,-1.105349183E0,-8.787977219E0
9.101408402E1,3.861032724E0,-1.277823687E0,-8.713717461E0
9.106408402E1,1.664378881E0,3.240048885E0,-2.384862661E0
9.111408402E1,2.905236721E0,-1.411970496E0,-1.455868530E1
9.116408402E1,4.637167931E0,-7.843550444E-1,-1.075226974E1
9.121408402E1,4.004761696E0,-1.994071722E0,-9.017943382E0
9.126408402E1,3.805936575E0,-2.810930014E0,-1.013423634E1
9.131408402E1,3.470569611E0,-2.585754871E0,-6.500294685E0
9.136408402E1,3.865823507E0,-2.511495113E0,-7.331525803E0
9.141408402E1,3.130411625E0,-2.504308701E0,-9.532971382E0
9.146408402E1,3.896964788E0,-3.268466234E0,-9.209581375E0
9.151408402E1,3.477756023E0,-3.134319544E0,-9.659931183E0
9.156408402E1,3.983201981E0,-3.225347757E0,-7.221333981E0
9.161408402E1,3.484942436E0,-2.997777224E0,-7.135096550E0
9.166408402E1,4.165258884E0,-3.498432159E0,-9.082621574E0
9.171408402E1,3.331631899E0,-3.714025259E0,-9.336542130E0
9.176408402E1,3.837077856E0,-3.304398537E0,-9.482666016E0
9.181408402E1,4.002366066E0,-2.753438473E0,-6.811707020E0
9.186408402E1,3.999970436E0,-2.731879234E0,-6.028385639E0
9.191408402E1,3.616693735E0,-3.594251394E0,-8.723299026E0
9.196408402E1,4.023925304E0,-4.698566914E0,-8.790372849E0
9.201408402E1,3.384332418E0,-4.574002266E0,-8.855051041E0
9.206408402E1,4.261077881E0,-4.080533504E0,-7.923208714E0
9.211408402E1,3.894569397E0,-3.225347757E0,-7.674079418E0
9.216408402E1,4.613213062E0,-3.438545227E0,-5.601990223E0
9.221408402E1,3.861032724E0,-4.217075825E0,-9.166462898E0
9.226408402E1,4.114953518E0,-4.336849689E0,-7.482440948E0
9.231408402E1,4.191608906E0,-4.166770935E0,-8.481355667E0
9.236408402E1,4.428761482E0,-3.625392675E0,-7.729175568E0
9.241408402E1,4.891088486E0,-3.266070843E0,-6.646419048E0
9.246408402E1,4.529371262E0,-2.957054138E0,-8.352000237E0
9.251408402E1,4.826410770E0,-2.937890291E0,-7.626169682E0
9.256408402E1,4.960557461E0,-2.578568459E0,-8.205876350E0
9.261408402E1,5.042003632E0,-1.915020943E0,-9.635976791E0
9.266408402E1,5.255201340E0,-1.457484484E0,-8.658621788E0
9.271408402E1,5.070749760E0,-1.792851567E0,-8.112452507E0
9.276408402E1,5.264783382E0,-2.377348185E0,-7.535141468E0
9.281408402E1,5.101890564E0,-2.178523540E0,-8.395118713E0
9.286408402E1,5.128241062E0,-2.271947145E0,-7.824994564E0
9.291408402E1,5.142613888E0,-2.178523540E0,-7.717197895E0
9.296408402E1,5.219269276E0,-1.675473094E0,-7.935186863E0
9.301408402E1,5.372580051E0,-1.701823354E0,-8.100475311E0
9.306408402E1,5.312692642E0,-2.101868153E0,-7.657310963E0
9.311408402E1,5.410907269E0,-1.948557615E0,-7.889672756E0
9.316408402E1,5.135427475E0,6.241863370E-1,-7.674079418E0
9.321408402E1,5.463607788E0,-2.065936089E0,-8.282531738E0
9.326408402E1,5.374975204E0,1.079327226E0,-8.280136108E0
9.331408402E1,6.488873005E0,-2.204873800E0,-8.119638443E0
9.336408402E1,5.791788578E0,-1.895857096E0,-6.976994991E0
9.341408402E1,5.413302898E0,-1.845552087E0,-8.078915596E0
9.346408402E1,5.638477802E0,-1.397597551E0,-9.142508507E0
9.351408402E1,6.311607361E0,-1.608399630E0,-7.853740215E0
9.356408402E1,5.767833710E0,-9.735978842E-1,-9.825219154E0
9.361408402E1,6.318793774E0,-9.448521137E-1,-8.514892578E0
9.366408402E1,4.503021240E0,-5.612961575E-2,-6.677560329E0
9.371408402E1,4.495834827E0,-2.286040634E-1,-4.845019341E0
9.376408402E1,4.256286621E0,-4.322197437E-1,-7.741152763E0
9.381408402E1,5.401325703E0,-4.729428887E-1,-8.567593575E0
9.386408402E1,5.683991909E0,-1.399713606E-1,-8.531661034E0
9.391408402E1,1.507426834E1,6.697003841E-1,5.788509846E0
9.396408402E1,5.990613461E0,-2.578568459E0,-1.264230251E1
9.401408402E1,3.381937027E0,1.043395042E0,-5.843933582E0
9.406408402E1,5.137823105E0,-1.524557948E0,-8.622689247E0
9.411408402E1,4.766523838E0,-1.855134010E0,-7.927999973E0
9.416408402E1,4.390433788E0,-1.668286681E0,-6.869198322E0
9.421408402E1,5.420489311E0,-2.482749462E0,-7.712407112E0
9.426408402E1,5.190523624E0,-2.329438686E0,-9.365287781E0
9.431408402E1,5.094704151E0,-1.816806316E0,-8.991593361E0
9.436408402E1,5.437257767E0,-1.081394434E0,-7.297989368E0
9.441408402E1,4.476670742E0,-1.876693249E0,-7.494418621E0
9.446408402E1,4.474275589E0,-2.147382259E0,-7.750734806E0
9.451408402E1,4.780896664E0,-2.295902014E0,-8.222644806E0
9.456408402E1,5.133031845E0,-2.319856882E0,-8.531661034E0
9.461408402E1,5.039608479E0,-2.322252274E0,-7.896858692E0
9.466408402E1,5.030026436E0,-2.164150715E0,-7.381831169E0
9.471408402E1,5.013257980E0,-2.032399416E0,-8.340023041E0
9.476408402E1,4.979721546E0,-1.756919384E0,-7.858531475E0
9.481408402E1,5.322274685E0,-1.898252606E0,-7.947164059E0
9.486408402E1,5.245619297E0,-2.238410473E0,-8.881401062E0
9.491408402E1,4.754546165E0,-2.542636395E0,-6.699119568E0
9.496408402E1,4.948580265E0,-2.271947145E0,-8.457401276E0
9.501408402E1,4.984512329E0,-2.609709740E0,-8.289717674E0
9.506408402E1,5.295924664E0,-2.422862291E0,-8.229830742E0
9.511408402E1,4.967743874E0,-1.917416453E0,-6.996159077E0
9.516408402E1,4.689868450E0,-2.372557402E0,-7.714802265E0
9.521408402E1,5.324670315E0,-2.509099722E0,-7.995073795E0
9.526408402E1,5.497144699E0,-2.542636395E0,-7.978305340E0
9.531408402E1,4.895879745E0,-2.264760733E0,-7.595028400E0
9.536408402E1,5.118659019E0,-2.164150715E0,-7.523164272E0
9.541408402E1,4.871924877E0,-2.317461252E0,-8.385537148E0
9.546408402E1,4.919834614E0,-2.420466900E0,-7.971118450E0
9.551408402E1,4.845574379E0,-2.183314562E0,-7.961536884E0
9.556408402E1,4.934207439E0,-2.259969950E0,-8.356791496E0
9.561408402E1,4.845574379E0,-2.257574320E0,-7.669288158E0
9.566408402E1,4.974930286E0,-2.336625099E0,-8.237017632E0
9.571408402E1,4.881506920E0,-2.238410473E0,-7.769898415E0
9.576408402E1,5.257596970E0,-2.247992516E0,-7.963932514E0
9.581408402E1,6.258906841E0,-2.549822807E0,-7.767502785E0
9.586408402E1,6.979946136E0,-2.621687174E0,-7.259661674E0
9.591408402E1,5.418094158E0,-1.855134010E0,-7.942372799E0
9.596408402E1,4.514998436E0,-1.009530067E0,-8.450214386E0
9.601408402E1,3.844264269E0,-1.203563809E0,-8.035797119E0
9.606408402E1,3.892173767E0,-1.812015414E0,-7.892067432E0
9.611408402E1,6.019359112E0,-3.294816494E0,-8.004655838E0
9.616408402E1,5.513913155E0,-2.842071056E0,-6.782961369E0
9.621408402E1,5.466003418E0,-2.465981007E0,-7.379435539E0
9.626408402E1,5.542658806E0,-2.707924366E0,-7.523164272E0
9.631408402E1,5.751065254E0,-2.348602533E0,-8.189107895E0
9.636408402E1,5.276760578E0,-9.424566627E-1,-8.620293617E0
9.641408402E1,5.188127995E0,-1.385620236E0,-7.508791447E0
9.646408402E1,5.533076763E0,-1.498207688E0,-7.937581539E0
9.651408402E1,5.516308784E0,-1.828783751E0,-7.954349995E0
9.656408402E1,5.583382130E0,-2.022817373E0,-7.566282749E0
9.661408402E1,5.569009304E0,-2.240806103E0,-7.731570721E0
9.666408402E1,5.578590870E0,-2.226433039E0,-7.599819660E0
9.671408402E1,5.616918564E0,-2.065936089E0,-7.693243027E0
9.676408402E1,5.525890350E0,-1.680263996E0,-7.717197895E0
9.681408402E1,5.597754955E0,-1.498207688E0,-7.647728920E0
9.686408402E1,5.578590870E0,-1.507789612E0,-7.779480457E0
9.691408402E1,5.533076763E0,-1.756919384E0,-7.777084827E0
9.696408402E1,5.612127781E0,-1.994071722E0,-7.575864792E0
9.701408402E1,5.513913155E0,-2.197687387E0,-7.300384521E0
9.706408402E1,5.624104977E0,-2.367766380E0,-7.733966351E0
9.711408402E1,5.561822414E0,-2.063540697E0,-7.774689198E0
9.716408402E1,5.573800087E0,-1.768896699E0,-7.549514294E0
9.721408402E1,5.698364735E0,-1.491021276E0,-7.492022991E0
9.726408402E1,5.636082649E0,-1.572467566E0,-7.712407112E0
9.731408402E1,5.717528820E0,-1.788060546E0,-7.515977859E0
9.736408402E1,5.628896236E0,-2.032399416E0,-7.932791233E0
9.741408402E1,5.571404457E0,-2.039585829E0,-7.551909924E0
9.746408402E1,5.789392948E0,-1.994071722E0,-7.446508884E0
9.751408402E1,5.959472179E0,-1.538930774E0,-7.168633461E0
9.756408402E1,6.809866905E0,-1.639540911E0,-7.791457653E0
9.761408402E1,5.588172913E0,-9.424566627E-1,-6.768588543E0
9.766408402E1,5.846884727E0,-9.903662205E-1,-8.296904564E0
9.771408402E1,6.256511211E0,-1.352083445E0,-7.851344585E0
9.776408402E1,5.880421162E0,-1.407179475E0,-6.941062927E0
9.781408402E1,5.842093468E0,-1.526953459E0,-7.616587639E0
9.786408402E1,5.899585247E0,-1.502998590E0,-7.525559425E0
9.791408402E1,6.553550720E0,-1.141281366E0,-6.943458557E0
9.796408402E1,5.434862137E0,-2.061145067E0,-9.233536720E0
9.801408402E1,5.935517311E0,-2.065936089E0,-7.439322472E0
9.806408402E1,5.542658806E0,-1.994071722E0,-7.904045582E0
9.811408402E1,5.329461098E0,-1.270637155E0,-7.676474571E0
9.816408402E1,5.660037041E0,-1.119722009E0,-6.921898842E0
9.821408402E1,4.692264080E0,-1.253868818E0,-7.880090237E0
9.826408402E1,6.376285553E0,-1.888670683E0,-8.668203354E0
9.831408402E1,5.353415966E0,-2.391721249E0,-8.397514343E0
9.836408402E1,3.707721949E0,-2.025213003E0,-6.984181404E0
9.841408402E1,7.897414207E0,-3.268187046E-1,-3.069969654E0
9.846408402E1,5.437257767E0,-1.804828882E0,-7.036881924E0
9.851408402E1,4.979721546E0,-1.689845920E0,-8.790372849E0
9.856408402E1,4.618004322E0,-1.862320423E0,-8.383141518E0
9.861408402E1,5.669619083E0,-1.876693249E0,-8.910146713E0
9.866408402E1,5.334252357E0,-1.694636941E0,-7.571073532E0
9.871408402E1,5.188127995E0,-1.915020943E0,-7.398599148E0
9.876408402E1,5.077936172E0,-2.133009434E0,-8.342418671E0
9.881408402E1,5.238432884E0,-2.288715601E0,-7.144678593E0
9.886408402E1,5.099495411E0,-1.833574653E0,-8.701740265E0
9.891408402E1,5.212082863E0,-1.754523873E0,-7.916022778E0
9.896408402E1,5.264783382E0,-1.541326284E0,-7.920814037E0
9.901408402E1,5.427675724E0,-1.584444880E0,-7.647728920E0
9.906408402E1,5.377370834E0,-1.804828882E0,-7.523164272E0
9.911408402E1,5.264783382E0,-2.173732519E0,-8.522079468E0
9.916408402E1,5.298319817E0,-2.154568911E0,-7.566282749E0
9.921408402E1,5.343833923E0,-1.922207355E0,-7.913627148E0
9.926408402E1,5.312692642E0,-1.685055017E0,-7.882485867E0
9.931408402E1,5.482771873E0,-1.596422315E0,-7.480045795E0
9.936408402E1,6.752375603E0,-1.766501307E0,-7.841763020E0
9.941408402E1,4.938998222E0,-1.356874466E0,-7.832180500E0
9.946408402E1,4.383247375E0,-1.225123167E0,-7.499209404E0
9.951408402E1,5.032422066E0,-1.898252606E0,-7.901649952E0
9.956408402E1,5.564218044E0,-2.427653313E0,-6.859616756E0
9.961408402E1,4.649145126E0,-2.849257469E0,3.484059811E0
9.966408402E1,7.808781624E0,-4.823132038E0,6.597904563E-1
9.971408402E1,1.295187378E1,-2.449212551E0,-4.979166031E0
9.976408402E1,2.324524498E1,2.218109703E1,-5.958916664E0
9.981408402E1,1.275784016E1,-3.579599261E-1,-4.358736992E0
9.986408402E1,1.437718391E1,-3.984714508E0,-2.799280405E0
9.991408402E1,1.817641258E1,-7.963324785E-1,1.922207594E0
9.996408402E1,1.194816875E1,2.784908056E0,5.184572339E-1
1.000140840E2,1.237935448E1,-1.383224726E0,-7.904045582E0
1.000640840E2,8.527424812E0,-2.156964302E0,-6.689537525E0
1.001140840E2,8.055516243E0,-2.731879234E0,-3.925155640E0
1.001640840E2,1.121036148E1,-1.594026804E0,-3.917968750E0
1.002140840E2,1.158166027E1,7.942652702E-1,-2.782512188E0
1.002640840E2,1.382143307E1,6.169998646E-1,-1.601541400E0
1.003140840E2,1.492335320E1,-4.154514074E-1,-2.087823391E0
1.003640840E2,1.370405388E1,-2.331834316E0,7.276102066E0
1.004140840E2,9.214927673E0,-1.158049703E0,8.823580742E0
1.004640840E2,8.565752983E0,-6.526037455E-1,7.822271347E0
1.005140840E2,1.008927727E1,-4.250333309E-1,5.812464714E0
1.005640840E2,1.314830303E1,-9.089199305E-1,2.463585854E0
1.006140840E2,1.419512749E1,-9.376657009E-1,-2.035122871E0
1.006640840E2,1.262129784E1,-9.544340372E-1,-4.665358067E0
1.007140840E2,1.040787601E1,-1.493416667E0,-5.513357639E0
1.007640840E2,9.258046150E0,-1.665891171E0,-3.927550793E0
1.008140840E2,9.296373367E0,-7.100952268E-1,-1.745270014E0
1.008640840E2,9.248464584E0,-1.423668414E-1,-6.936548948E-1
1.009140840E2,9.950339317E0,-4.415222257E-2,-4.085929394E-1
1.009640840E2,9.979084969E0,7.801718265E-2,-7.152141929E-1
1.010140840E2,1.090853119E1,1.882092059E-1,-9.403892159E-1
1.010640840E2,1.168706131E1,1.930001676E-1,-7.942649722E-1
1.011140840E2,1.123671150E1,6.169998646E-1,1.275428414E0
1.011640840E2,1.028810215E1,4.927144200E-2,3.230139017E0
1.012140840E2,1.001501751E1,-1.033606939E-3,4.039810658E0
1.012640840E2,9.267627716E0,2.672599852E-1,3.201393366E0
1.013140840E2,1.018270111E1,-1.064346656E-1,1.687450647E0
1.013640840E2,1.069054222E1,-1.540647820E-2,8.801745176E-1
1.014140840E2,1.249673271E1,-3.340051472E-1,2.501636147E-1
1.014640840E2,1.125108433E1,-2.738387138E-2,-4.109884501E-1
1.015140840E2,1.087499428E1,3.489857167E-2,-1.924930930E0
1.015640840E2,9.631740570E0,-3.457030654E-2,-2.813653469E0
1.016140840E2,9.476034164E0,-2.262085825E-1,-1.963258624E0
1.016640840E2,9.964712143E0,-6.933268905E-1,-3.357426882E0
1.017140840E2,9.202950478E0,4.927144200E-2,-2.279461622E0
1.017640840E2,1.132534409E1,3.918248713E-1,-4.876437783E-1
1.018140840E2,1.073366070E1,-2.980729640E-1,5.400165319E-1
1.018640840E2,1.068814659E1,-4.609654844E-1,9.208976030E-1
1.019140840E2,1.081750298E1,-1.998583227E-1,1.610795379E0
1.019640840E2,9.852125168E0,-5.064795613E-1,3.254093885E0
1.020140840E2,9.011311531E0,-3.603554070E-1,3.618206501E0
1.020640840E2,1.025216961E1,-4.681519270E-1,2.276738644E0
1.021140840E2,1.034080219E1,-1.088301465E-1,1.337710857E0
1.021640840E2,1.060909557E1,-9.445726871E-2,-1.642541736E-1
1.022140840E2,1.080792046E1,-9.445726871E-2,-1.656637311E0
1.022640840E2,1.025456524E1,-6.810700893E-2,-2.296230078E0
1.023140840E2,9.444893837E0,8.759909868E-2,-1.841089129E0
1.023640840E2,9.531130791E0,-2.309995443E-1,-1.017044544E0
1.024140840E2,1.010125446E1,-4.585700035E-1,-6.433498859E-1
1.024640840E2,9.670068741E0,-3.100503385E-1,-1.112863660E0
1.025140840E2,9.880870819E0,-2.498839423E-2,-1.498535752E0
1.025640840E2,1.042703915E1,-1.160165817E-1,-1.191914558E0
1.026140840E2,1.032882500E1,-2.094402313E-1,4.418019056E-1
1.026640840E2,1.019228268E1,-4.178468883E-1,2.271947622E0
1.027140840E2,9.729955673E0,-3.364005983E-1,3.328353643E0
1.027640840E2,9.665277481E0,-2.238131016E-1,3.131924391E0
1.028140840E2,1.004136753E1,-1.687171012E-1,1.893461823E0
1.028640840E2,1.017311859E1,-6.331604719E-2,4.729431272E-1
1.029140840E2,1.032882500E1,-1.663216203E-1,-3.534969687E-1
1.029640840E2,1.010844135E1,-6.092057377E-2,-3.822426796E-1
1.030140840E2,9.782655716E0,-3.696578741E-2,-5.475307107E-1
1.030640840E2,9.674859047E0,-3.052593768E-1,-1.273360729E0
1.031140840E2,9.835356712E0,-3.316096663E-1,-1.364388943E0
1.031640840E2,9.495198250E0,-1.806944907E-1,-1.275756240E0
1.032140840E2,9.811401367E0,-1.112256199E-1,-8.661293387E-1
