"Time (s)","Gyroscope x (rad/s)","Gyroscope y (rad/s)","Gyroscope z (rad/s)"
1.265929800E-1,2.769683488E-4,-2.916164231E-4,-7.416900480E-4
1.763536050E-1,2.343580127E-4,-1.058605616E-3,8.775111055E-4
2.261170940E-1,9.161266498E-4,-8.029425517E-4,5.366265541E-4
2.758832920E-1,7.030735724E-4,1.242362661E-3,-8.269109530E-4
3.256969380E-1,4.900209606E-4,1.796300057E-3,-1.451425487E-4
3.754777190E-1,6.391573697E-5,1.412805635E-3,-6.990797119E-4
4.252236050E-1,4.048000555E-4,-6.325007416E-4,4.940158688E-4
4.750286570E-1,8.309050463E-4,-7.856357843E-5,1.261005644E-3
5.247884490E-1,2.769685816E-4,9.440893773E-4,-6.990799448E-4
5.745625630E-1,8.735160809E-4,1.071921084E-3,6.791041233E-5
6.243544900E-1,1.043958124E-3,5.179841537E-4,1.005342463E-3
6.741268860E-1,-5.326319952E-4,9.187893011E-5,-1.253016177E-3
7.238968860E-1,-2.769685816E-4,6.884261966E-4,-4.860268673E-4
7.736827190E-1,1.597895520E-3,1.412805635E-3,1.388837351E-3
8.234591780E-1,5.752423313E-4,5.179839209E-4,-2.729737898E-4
8.732339690E-1,-2.130540088E-5,-2.490056213E-4,5.792372394E-4
9.230168340E-1,6.391596980E-5,9.867001791E-4,4.514054162E-4
9.727914690E-1,-1.917476766E-4,7.736473344E-4,-1.295627211E-3
1.022557251E0,1.342232223E-3,1.157142222E-3,1.531315502E-4
1.072350584E0,5.326317623E-4,1.199752791E-3,1.346226782E-3
1.122095844E0,1.491368748E-4,1.157141989E-3,-6.564689102E-4
1.171905584E0,-1.065263059E-4,-1.058605849E-3,-1.731084194E-5
1.221676417E0,2.343577798E-4,1.029310282E-3,3.661841620E-4
1.271422667E0,4.900209606E-4,1.540637109E-3,-5.286372034E-4
1.321223084E0,2.343575470E-4,9.014788084E-4,6.791076157E-5
1.371000688E0,4.900209606E-4,-1.211736817E-4,-1.731084194E-5
1.420766938E0,-2.769685816E-4,-1.211741474E-4,-8.269109530E-4
1.470558396E0,4.047995899E-4,1.540636644E-3,-3.581951605E-4
1.520301261E0,1.171789831E-3,1.029310981E-3,-2.303636866E-4
1.570100063E0,1.640505390E-3,-3.595277667E-5,1.957420027E-4
1.619883605E0,8.735158481E-4,-5.046690349E-4,1.957420027E-4
1.669657928E0,-4.900216591E-4,3.901526798E-4,2.383525716E-4
1.719440324E0,4.474103916E-4,-1.101216418E-3,1.218395191E-3
1.769213761E0,-1.084438339E-2,-1.315999962E-2,5.138564855E-3
1.818992042E0,5.752418656E-4,3.475423437E-4,1.303616213E-3
1.868757251E0,-4.026697017E-3,-6.129260175E-3,-1.025319798E-4
1.918542459E0,4.220574349E-2,-2.724877596E-1,1.135823950E-1
1.968319959E0,2.163550109E-1,-1.295183420E0,4.560859203E-1
2.018099438E0,3.532627523E-1,-2.152081013E0,6.259741187E-1
2.067886053E0,5.655484200E-1,-6.233004332E-1,6.382459998E-1
2.117642042E0,5.727496743E-1,-1.365192652E0,9.231826663E-1
2.167416417E0,4.954114854E-1,-2.087355614E0,5.355119705E-1
2.217205219E0,6.361115575E-1,-2.828523397E0,4.626906216E-1
2.266975167E0,1.668842286E-1,-2.306416988E0,2.608018219E-1
2.316758813E0,-2.284116745E0,-1.619364381E0,6.666671634E-1
2.366535896E0,-1.937565327E0,-2.270581245E0,5.057272315E-1
2.416285167E0,-1.729327679E0,-2.460794449E0,2.884986997E-1
2.466084021E0,-2.427927494E0,-2.099585295E0,4.325223565E-1
2.515866417E0,-2.342578411E0,-1.006454468E0,3.781512380E-1
2.565636990E0,-1.130990386E0,-1.816421151E-1,1.728110611E-1
2.615376261E0,3.587594628E-1,1.485896111E-1,-7.812243700E-2
2.665189646E0,3.996656537E-1,1.191031262E-1,-1.088446453E-1
2.714963761E0,4.161985219E-1,-1.361340284E-1,-3.215564787E-1
2.764744334E0,7.986281514E-1,-1.223708168E-1,-9.706856012E-1
2.814512511E0,1.108960509E0,-1.562888175E-1,-1.385584354E0
2.864292719E0,1.278976560E0,2.685383260E-1,-1.696471095E0
2.914047459E0,1.385161877E0,5.870521069E-1,-1.588069797E0
2.963837667E0,2.033993006E0,5.168725252E-1,-1.213395119E0
3.013618032E0,1.989976168E0,6.306425333E-1,-7.828582525E-1
3.063392407E0,2.128886461E0,5.867112279E-1,-3.098811805E-1
3.113182355E0,2.079159975E0,6.073346734E-1,-6.408895366E-3
3.162959438E0,1.732139945E0,4.137124717E-1,2.759711742E-1
3.212728240E0,1.915791035E0,3.826067448E-1,2.777182460E-1
3.262514542E0,1.740022779E0,4.022501707E-1,2.161459476E-1
3.312290480E0,1.464076757E0,2.712228000E-1,1.777112931E-1
3.362053813E0,1.171214700E0,-7.814107090E-2,3.354555070E-1
3.411840949E0,5.192733407E-1,-2.025638670E-1,5.467186570E-1
3.461608449E0,2.943323553E-1,-3.668274581E-1,4.855724275E-1
3.511396730E0,2.533835769E-1,-2.874866128E-1,2.171405777E-2
3.561160376E0,4.268936515E-1,-3.943965733E-1,-2.547857463E-1
3.610941001E0,5.862571001E-1,-4.700728655E-1,-3.729020655E-1
3.660720063E0,4.825857282E-1,-3.271144331E-1,-3.239426911E-1
3.710499386E0,4.546758235E-1,-1.267171055E-1,-2.587485313E-1
3.760270584E0,4.003473222E-1,3.218867183E-1,-2.334804535E-1
3.810036574E0,8.489086032E-1,6.913627982E-1,-2.378267348E-1
3.859821886E0,4.748731554E-1,7.860006690E-1,-1.584006995E-1
3.909612876E0,-6.133786589E-2,2.242233306E-1,1.964599341E-1
3.959377563E0,2.445632070E-1,-7.230091095E-1,2.880299687E-1
4.009150219E0,1.517574489E-1,-6.414951086E-1,1.512501240E-1
4.058936678E0,1.004266620E0,-3.081101477E-1,7.416763902E-2
4.108703969E0,1.411197424E0,-6.970419735E-2,1.788617671E-1
4.158490480E0,8.436674476E-1,1.791413575E-1,9.317195415E-2
4.208258292E0,4.280868173E-1,1.274973899E-1,-5.486280918E-1
4.258041990E0,4.014552832E-1,-1.963680424E-2,-1.759988666E-1
4.307823292E0,8.462666869E-1,3.839875385E-2,3.202582151E-2
4.357599646E0,7.758740187E-1,4.442215264E-1,-6.580799818E-2
4.407369126E0,7.508191466E-1,7.238320112E-1,-2.231261134E-1
4.457103344E0,6.914625764E-1,2.740350664E-1,5.487211943E-1
4.506916261E0,8.117295802E-3,2.483409196E-1,4.536145627E-1
4.556697407E0,4.173702747E-2,-4.920851439E-2,-2.603677511E-1
4.606470011E0,6.956172734E-2,1.885156929E-1,-3.099237978E-1
4.656248449E0,2.700016797E-1,6.842892766E-1,-9.806416929E-2
4.706025480E0,4.247206151E-1,4.223197997E-1,2.438428700E-1
4.755805532E0,1.009294510E0,1.078539267E-1,2.458029240E-1
4.805563344E0,8.234273791E-1,-9.633578360E-2,-3.072393239E-1
4.855358136E0,-2.678072453E-2,-2.994855307E-2,-1.844783425E-1
4.905137980E0,2.622892559E-1,-1.983454674E-1,-7.620497048E-2
4.954916001E0,2.180168331E-1,1.109645143E-1,-3.764814734E-1
5.004692719E0,-8.677638322E-2,9.025581181E-2,-4.498567581E-1
5.054465949E0,7.794959545E-1,-5.798802972E-1,-2.702533305E-1
5.104236417E0,1.000261068E0,-8.634108305E-1,-1.068419293E-1
5.154015167E0,4.196926057E-1,-5.863145590E-1,6.654035300E-2
5.203793969E0,1.418718100E-1,-6.020377874E-1,8.102793247E-2
5.253570844E0,8.017173409E-2,-5.066326857E-1,8.845682256E-3
5.303339334E0,9.947431833E-2,-3.650377989E-1,8.724907786E-2
5.353137459E0,3.764428794E-1,-4.275049269E-1,1.742597967E-1
5.402887251E0,7.738289833E-1,-5.951348543E-1,1.037819609E-1
5.452676001E0,5.457345843E-1,2.868354134E-2,-2.227851897E-1
5.502451626E0,2.736235857E-1,3.701644540E-1,-3.216416240E-1
5.552218344E0,6.341088414E-1,-7.425246239E-1,2.861697413E-2
5.602009855E0,1.177222729E0,-5.822238326E-1,2.453341931E-1
5.651783032E0,6.104173660E-1,-1.933853701E-2,-1.273376197E-1
5.701561313E0,2.575593889E-1,6.910219193E-1,-3.369388580E-1
5.751333917E0,5.394282341E-1,6.166410446E-2,-4.083966911E-1
5.801100167E0,6.437814236E-1,-8.585358411E-2,-1.766806096E-1
5.850886886E0,7.125549316E-1,-1.764010340E-1,-1.020123065E-2
5.900657459E0,7.946652174E-1,-1.285067350E-1,-5.343628116E-3
5.950403240E0,6.675581336E-1,-2.360983491E-1,1.171616912E-1
6.000211053E0,7.008795738E-1,-4.140399396E-1,-8.715587854E-2
6.049995949E0,7.608325481E-1,-1.331086904E-1,-2.356962264E-1
6.099767667E0,6.882667542E-1,-4.179428518E-2,2.794982400E-3
6.149544542E0,6.709243059E-1,-3.924364448E-1,3.896135390E-1
6.199330949E0,3.723522723E-1,-6.883667707E-1,1.369755864E-1
6.249097042E0,2.857035957E-2,-1.484058648E-1,-2.635208964E-1
6.298875219E0,1.838005632E-1,7.858049870E-2,-3.839809597E-1
6.348662303E0,6.421623230E-1,-1.421421170E-1,-2.119621336E-1
6.398425271E0,5.852345228E-1,-2.533556223E-1,-2.562624402E-2
6.448208605E0,3.346845806E-1,-1.652370542E-1,1.423871219E-1
6.497959126E0,4.115539193E-1,-2.444074601E-1,2.662985921E-1
6.547731574E0,6.473607421E-1,-2.331582606E-1,5.916726589E-1
6.597536053E0,5.801638365E-1,7.990142703E-2,3.985190988E-1
6.647297928E0,3.906321526E-1,7.814840078E-1,-1.853731573E-1
6.697092146E0,3.468284607E-1,7.721523643E-1,-6.995547414E-1
6.746862251E0,1.734036058E-1,-7.055639476E-2,-4.088228345E-1
6.796649074E0,-4.199268669E-2,-5.688866973E-1,3.335806727E-1
6.846420636E0,1.147288904E-1,-5.662449002E-1,1.907927096E-1
6.896168657E0,1.834385283E-2,-3.459310159E-2,-3.538552523E-1
6.945973292E0,-2.743053734E-1,1.002121329E0,-3.887107670E-1
6.995738396E0,2.028474957E-1,9.630647302E-2,-1.049244851E-1
7.045522459E0,3.048145473E-1,-7.031951547E-1,3.612348735E-1
7.095293605E0,7.220356911E-2,-4.328737557E-1,1.847846210E-1
7.145060740E0,7.399321347E-2,3.771952093E-1,-2.281967551E-1
7.194861990E0,9.693898261E-3,-1.107381359E-1,-4.355822802E-1
7.244622928E0,2.696608305E-1,-4.016829133E-1,3.590337560E-2
7.294408709E0,5.971227884E-1,-2.221221179E-1,-1.510290653E-1
7.344191574E0,1.813291907E-1,1.716845483E-1,-3.625904620E-1
7.393939855E0,3.186203539E-1,1.178248227E-1,-2.156692594E-1
7.443733396E0,6.337251663E-1,-6.647604704E-1,2.040445805E-1
7.493511053E0,6.570332646E-1,-7.251647860E-2,1.892587394E-1
7.543290376E0,3.913778812E-2,7.000126243E-1,-3.827878237E-1
7.593067771E0,-1.987568736E-1,6.456842422E-1,-3.726464808E-1
7.642821782E0,1.732757837E-1,2.280330285E-2,-2.072603628E-2
7.692614542E0,1.579359621E-1,-2.751974948E-2,1.553553063E-2
7.742374021E0,-3.223486990E-2,6.095504165E-1,-2.155414671E-1
7.792186834E0,1.421700716E-1,5.171281695E-1,-2.040366083E-1
7.841949646E0,1.938566864E-1,1.531063169E-1,-3.755719960E-2
7.891721001E0,-1.909165084E-1,-2.598577552E-2,-1.591676772E-1
7.941504438E0,-1.139192805E-1,-8.819716424E-2,-1.206477582E-1
7.991283449E0,1.263615787E-1,-1.269301772E-1,-1.463845223E-1
8.041057459E0,-3.247136474E-1,3.106801510E-1,-3.687263429E-1
8.090810167E0,-2.564941645E-1,4.085565507E-1,-6.560066342E-1
8.140596938E0,5.180377960E-1,-1.654500812E-1,-1.263575703E-1
8.190382719E0,5.037631392E-1,-5.921094418E-1,8.068705350E-2
8.240162146E0,-5.731117446E-3,7.052710652E-2,-6.512622535E-2
8.289933657E0,2.288399488E-1,-1.157661825E-1,-1.424217522E-1
8.339706365E0,3.030248880E-1,-7.501093745E-1,-2.626540139E-2
8.389492407E0,-1.673955172E-1,5.071322247E-2,-8.119039983E-2
8.439265740E0,-2.022509128E-1,9.334331751E-1,-4.620860815E-1
8.489028709E0,-8.319708705E-2,-3.173819929E-2,-4.728238881E-1
8.538821626E0,3.659606576E-1,-3.326112330E-1,2.377921641E-1
8.588583292E0,5.236622095E-1,-1.704781651E-1,-1.283176541E-1
8.638371365E0,-1.550746799E0,4.788639545E-1,-6.782493591E-1
8.688145949E0,-1.432587862E0,1.080141187E0,-5.289846063E-1
8.737923605E0,5.239180326E-1,-8.325181603E-1,-3.241983056E-1
8.787705063E0,-2.388107926E-1,-6.707259417E-1,4.074246585E-1
8.837474074E0,-7.135132700E-2,3.142168224E-1,-7.978425175E-2
8.887276782E0,2.303099446E-2,5.315732360E-1,-3.089863360E-1
8.937000636E0,5.532978475E-2,3.460894823E-1,2.438428402E-1
8.986808501E0,6.814917326E-1,-4.158722162E-1,3.001313806E-1
9.036583969E0,3.090329766E-1,-4.459979236E-1,2.980008423E-1
9.086361782E0,-1.030536070E-1,7.061232626E-2,3.366059959E-1
9.136144438E0,9.176179767E-2,1.091748700E-1,2.200661600E-1
9.185920167E0,9.821729735E-3,-3.152514622E-2,3.548432887E-1
9.235681990E0,3.372624889E-2,-2.479015440E-1,4.940519631E-1
9.285478032E0,2.085146457E-1,-2.269370705E-1,3.656663001E-1
9.335223292E0,2.404299974E-1,6.017274410E-2,3.515622914E-1
9.385021938E0,4.291947186E-1,-2.192246020E-1,4.470098913E-1
9.434794646E0,6.284842491E-1,-2.463249117E-1,4.931997359E-1
9.484561574E0,1.656058878E-1,-1.318303645E-1,-8.374702185E-2
9.534348501E0,-1.495843083E-1,3.802205622E-1,-5.928857252E-2
9.584121313E0,1.613022089E-1,-4.699277133E-2,1.442766562E-2
9.633887771E0,-1.507347971E-1,-1.741000116E-1,4.327500239E-2
9.683680636E0,-3.433344066E-1,2.126932330E-2,1.015662178E-1
9.733450532E0,1.795395017E-1,-6.987211704E-1,2.653611600E-1
9.783234178E0,5.034436285E-2,-5.645830631E-1,3.834775984E-1
9.833003344E0,-1.378664225E-1,-2.214403600E-1,2.663838267E-1
9.882784386E0,5.486107245E-2,-3.749234378E-1,1.322884262E-1
9.932566053E0,-1.263402402E-2,-1.900363863E-1,1.497587264E-1
9.982340949E0,-5.085568130E-2,-1.656884328E-2,1.374443173E-1
1.003210933E1,2.630561292E-1,-2.132165283E-1,9.709210694E-2
1.008188236E1,1.486468911E-1,-2.306868285E-1,1.112814322E-1
1.013167183E1,-1.073146611E-1,-3.915243223E-2,8.166709542E-2
1.018143444E1,1.319861561E-1,-2.420638800E-1,4.898481444E-2
1.023121522E1,1.106808931E-1,-1.243309230E-1,5.908351019E-2
1.028100506E1,6.278663129E-2,-8.046733215E-3,5.367197096E-2
1.033077126E1,2.140540779E-1,-1.937861145E-1,4.195407405E-2
1.038055673E1,1.384842792E-3,-8.116643876E-2,5.891306326E-2
1.043031230E1,-1.855688728E-2,-6.101163849E-2,5.286237597E-2
1.048010756E1,2.038275450E-1,-2.661387920E-1,7.199449837E-2
1.052987543E1,8.202528581E-3,-4.126568325E-3,4.762127250E-2
1.057965986E1,-5.177182611E-3,7.335670758E-3,-6.068007089E-3
1.062943636E1,4.774511606E-2,-8.662056923E-2,-3.517101333E-2
1.067919918E1,-3.730553761E-2,1.455415972E-3,-5.984251946E-2
1.072896850E1,-1.928127185E-2,-3.241996840E-2,-8.758196980E-2
1.077876308E1,1.060363352E-1,-1.140191555E-1,-3.223088384E-2
1.082854819E1,3.568632901E-2,-3.629752621E-2,2.661428042E-2
1.087832350E1,-1.229314506E-2,4.726175591E-2,1.434244122E-2
1.092809595E1,4.953476414E-2,-5.824195221E-2,-2.724545076E-2
1.097786683E1,1.237836294E-2,-1.247996166E-1,-5.907552689E-2
1.102764996E1,-6.900777668E-2,-1.362192780E-1,-6.619148701E-2
1.107742449E1,-2.477802895E-2,-2.387402505E-1,-6.069472060E-2
1.112720095E1,7.094654255E-3,-2.650309205E-1,-2.025731839E-2
1.117696814E1,-1.100417227E-1,-2.677808050E-3,6.138448045E-2
1.122675199E1,5.554284155E-2,3.588473797E-2,4.800476506E-2
1.127652939E1,1.008378491E-1,4.709131271E-2,4.357327148E-2
1.132631361E1,-8.613721281E-2,1.083652750E-1,5.692501552E-3
1.137604220E1,2.528935485E-2,-2.124921083E-1,-7.070821524E-2
1.142585475E1,-5.025913194E-2,-2.333286703E-1,-7.748328894E-2
1.147564168E1,-1.376107782E-1,-9.757147729E-2,-6.887595356E-2
1.152540110E1,-1.012000814E-2,-1.346426606E-1,-8.528100699E-2
1.157517647E1,-2.128396742E-2,-2.901112102E-2,-8.326364681E-3
1.162497027E1,7.275750488E-2,-6.079857796E-2,8.803071454E-3
1.167474590E1,1.097434536E-1,-3.706451133E-2,-1.593902591E-3
1.172451027E1,4.135353118E-2,2.028927766E-2,-2.579668723E-2
1.177428736E1,3.849862516E-2,1.351419650E-2,-9.282308072E-2
1.182407032E1,5.068523809E-2,6.739123259E-3,-7.560842484E-2
1.187385136E1,4.808600247E-2,-6.569879502E-2,-5.745631084E-2
1.192362449E1,5.688505247E-3,-7.758713514E-2,-7.471360266E-2
1.197340704E1,-3.952128440E-2,2.518948726E-2,-6.866289675E-2
1.202316730E1,4.143875837E-2,-1.431048475E-2,-3.657715395E-2
1.207295038E1,3.070089780E-2,2.293112874E-2,-2.481664717E-2
1.212273496E1,4.876776785E-2,2.084321156E-2,1.728257164E-2
1.217249173E1,2.784598805E-2,-1.908286847E-2,-5.471459590E-3
1.222227772E1,-1.597895753E-3,-2.739192173E-2,-5.434574932E-2
1.227204673E1,4.793685861E-3,-5.231909826E-2,-1.121256426E-1
1.232183064E1,-4.838427156E-2,4.244675860E-2,-1.261871159E-1
1.237161069E1,3.606982157E-2,-8.174566552E-3,-1.371806413E-1
1.242138808E1,8.247271180E-2,-1.546096988E-2,-1.241844371E-1
1.247116371E1,6.679203361E-2,-6.706233323E-2,-1.610851735E-1
1.252094746E1,-2.839993127E-2,5.077311303E-3,-1.279767752E-1
1.257072329E1,1.229314134E-2,-6.757366657E-2,-1.524778157E-1
1.262047918E1,-8.681897819E-2,-1.637835521E-4,-1.491542459E-1
1.267027762E1,-1.071868166E-1,-8.005855232E-2,-1.438705027E-1
1.272004762E1,-1.663728803E-1,-2.433847636E-1,-1.571223736E-1
1.276978834E1,-3.060928285E-1,-2.563810050E-1,-8.770981431E-2
1.281960392E1,-2.592212558E-1,-2.372915149E-1,4.157057405E-2
1.286938136E1,-8.673375100E-2,-2.397628725E-1,5.814607441E-2
1.291916183E1,3.994737938E-2,-4.800863564E-1,3.036400490E-2
1.296893350E1,-2.185707986E-1,-1.359636039E-1,3.079010919E-2
1.301871423E1,-1.862719804E-1,1.087061614E-1,-5.812346935E-3
1.306848788E1,1.019883230E-1,-2.764758468E-2,-1.464271098E-1
1.311825569E1,-2.555567026E-1,1.435615867E-1,-3.037025928E-1
1.316801642E1,-7.001978159E-1,4.144794643E-1,-3.700046837E-1
1.321781095E1,-3.604638577E-1,3.178386688E-1,-4.698837399E-1
1.326757741E1,-5.933518708E-2,-1.393724382E-1,-2.607938349E-1
1.331736762E1,9.244357795E-2,-8.674839884E-2,-1.420808733E-1
1.336714043E1,2.328879237E-1,1.466468535E-2,-3.650618494E-1
1.341692762E1,-5.786298513E-1,5.959151387E-1,-5.029495358E-1
1.346670704E1,-1.265298843E0,1.654361010E0,-8.038654327E-1
1.351645626E1,-6.939339638E-1,9.094861150E-1,-6.415616870E-1
1.356624538E1,-3.219439387E-1,-2.709111273E-1,1.763051003E-1
1.361602116E1,8.605200052E-2,-4.678997397E-1,1.395322233E-1
1.366580204E1,1.360767782E-1,6.281460822E-2,-8.476968110E-2
1.371557850E1,8.089610934E-2,6.431701779E-1,-1.233322248E-1
1.376536314E1,7.827343941E-1,6.822613627E-2,-5.681715906E-2
1.381512673E1,8.154591918E-1,-2.643491030E-1,2.005930990E-1
1.386491631E1,7.455781102E-1,-8.159253001E-2,-1.109751761E-1
1.391468689E1,7.731896043E-1,-1.178541109E-1,-1.156623214E-1
1.396446350E1,1.085737824E0,-5.732330084E-1,-1.039018109E-1
1.401423694E1,8.446899652E-1,-7.649804354E-1,-1.583154947E-1
1.406401569E1,6.049632430E-1,-3.417299092E-1,-2.778806686E-1
1.411377642E1,5.869389772E-1,-3.562600613E-1,-5.076367259E-1
1.416357855E1,1.891694963E-1,-2.604289651E-1,-2.075732797E-1
1.421333407E1,4.823726714E-1,-5.227647349E-2,-1.184320226E-1
1.426309881E1,3.626369834E-1,-2.434273660E-1,-3.793363571E-1
1.431288767E1,-2.911365330E-1,4.087269902E-1,-3.959970474E-1
1.436268996E1,1.526948810E-1,-2.827995121E-1,-3.070688546E-1
1.441245173E1,5.563444495E-1,-5.538878441E-1,7.331543416E-2
1.446223522E1,6.955106258E-1,-4.652404413E-2,7.183868904E-3
1.451200668E1,8.025482893E-1,2.039833367E-1,-1.140857264E-1
1.456177918E1,6.502156258E-1,3.772804737E-1,1.979512721E-1
1.461153699E1,6.291659474E-1,2.974708378E-1,3.886334300E-1
1.466133965E1,2.794612646E-1,2.989196181E-1,5.107978582E-1
1.471110564E1,-1.280446723E-2,2.816196978E-1,6.168128252E-1
1.476089319E1,7.147918642E-2,1.050416678E-1,4.917935431E-1
1.481065366E1,-3.102260232E-1,3.984751925E-2,5.492751002E-1
1.486043829E1,-3.629352450E-1,5.915009975E-2,4.282187223E-1
1.491022626E1,-9.325318038E-2,3.737610579E-2,2.288865447E-1
1.495999459E1,-2.281581610E-1,1.617136449E-1,1.536363214E-1
1.500977480E1,-3.692203015E-2,1.358916759E-1,3.615903482E-2
1.505955126E1,1.108939275E-1,2.996187471E-2,-5.045354366E-3
1.510932892E1,-1.651371419E-1,9.455946088E-2,-8.920117468E-2
1.515910246E1,-8.502934128E-2,8.186150342E-2,-1.833704859E-1
1.520887980E1,1.253815293E-1,-1.163201183E-1,-6.474273652E-2
1.525866105E1,6.044306234E-2,-1.633621752E-1,4.544813931E-2
1.530843116E1,-6.455499213E-3,-1.099711657E-1,4.779171944E-2
1.535820840E1,-9.636374563E-2,-2.109155506E-1,6.218475755E-4
1.540799433E1,-2.051484883E-1,-2.780271173E-1,1.188660860E-1
1.545776621E1,-1.216744259E-1,-3.767130971E-1,2.244976312E-1
1.550753256E1,-5.192094669E-2,-3.509763777E-1,1.445602775E-1
1.555730829E1,-2.335697263E-1,-5.679320171E-2,-5.051080883E-2
1.560709626E1,-2.521052659E-1,9.835178405E-2,-1.257184297E-1
1.565686918E1,-4.007521272E-2,-2.699737549E-1,7.544595003E-2
1.570662376E1,1.221005023E-1,-2.993323803E-1,1.039097831E-1
1.575641220E1,5.221920833E-2,-3.953592107E-2,-3.223088384E-2
1.580619465E1,-8.511455357E-2,2.676607668E-2,-9.849028289E-2
1.585598621E1,-2.144375890E-1,1.082800478E-1,-1.448079348E-1
1.590575314E1,-1.061215624E-1,5.561340973E-2,-1.409729868E-1
1.595554392E1,3.632548824E-2,-2.796462774E-1,-1.387146115E-1
1.600529428E1,-2.781403065E-1,-2.071658075E-1,-3.495089710E-1
1.605508486E1,-3.701790869E-1,-1.524791680E-2,-4.123595953E-1
1.610485762E1,1.125131324E-1,-4.295928180E-1,-3.494237065E-1
1.615464371E1,-1.081668586E-1,-6.315668225E-1,-4.499420226E-1
1.620442689E1,-4.788785875E-1,-1.889711022E-1,-4.928082824E-1
1.625418944E1,4.452801310E-3,-4.011715949E-1,-3.631016910E-1
1.630397163E1,-4.480498284E-2,-7.076691985E-1,-1.588694006E-1
1.635375793E1,-4.367793500E-1,3.405248001E-2,-2.543596029E-1
1.640352121E1,-2.609682083E-1,2.664929926E-1,-3.317403793E-1
1.645330131E1,-2.022935748E-1,4.693809897E-3,-4.684630036E-2
1.650307647E1,-4.075697437E-2,-1.965983808E-1,1.777112782E-1
1.655285631E1,-1.140471175E-1,7.252980024E-2,5.286237225E-2
1.660263355E1,-2.083442807E-1,2.908236682E-1,-1.731095836E-5
1.665240782E1,-1.598960906E-1,-1.124252751E-2,-4.377834499E-2
1.670218277E1,-3.634466529E-1,1.056381986E-1,-1.389276683E-1
1.675195725E1,-1.165185347E-1,2.785517871E-1,1.817739755E-2
1.680168959E1,-3.301677704E-1,4.756681919E-1,9.385370463E-2
1.685150782E1,-3.381785750E-1,6.998848319E-1,7.652588189E-3
1.690128064E1,-4.808812737E-1,9.778333902E-1,-1.393111646E-1
1.695106746E1,-7.597247362E-1,1.642557979E0,-1.157901585E-1
1.700083064E1,-8.718755841E-1,1.750533104E0,-3.527899981E-1
1.705062251E1,-1.324996352E0,1.984081149E0,-5.290699005E-1
1.710039058E1,-6.707965136E-1,1.386937022E0,-5.163292885E-1
1.715017324E1,-4.624735713E-1,4.393640161E-1,-4.143196642E-1
1.719994730E1,-7.595968843E-1,7.707034945E-1,-6.864732504E-1
1.724972636E1,-7.936853170E-1,1.264261365E0,-9.183170795E-1
1.729949683E1,-5.110495687E-1,1.025003195E0,-2.481384873E-1
1.734928454E1,-3.127401173E-1,2.452729493E-1,-3.116708100E-1
1.739903876E1,-2.981246412E-1,3.885722160E-1,-1.637270153E-1
1.744883569E1,-2.874081396E-2,-7.620629389E-3,4.024965316E-2
1.749861053E1,6.455498748E-3,-6.640585605E-3,1.617469639E-2
1.754838543E1,-1.336053610E-1,2.200900912E-1,-6.120604649E-2
1.759816636E1,-8.490149677E-2,6.568481326E-1,-1.727458090E-2
1.764792704E1,-1.968393922E-1,8.284835219E-1,-1.414842904E-1
1.769770980E1,2.822948433E-2,4.506984055E-1,-1.589546055E-1
1.774749475E1,1.562741548E-1,-4.033447504E-1,8.903872222E-2
1.779726689E1,2.905826271E-1,-7.210488915E-1,1.914318353E-1
1.784704423E1,3.854762614E-1,-8.388670087E-1,1.618601531E-1
1.789681824E1,4.311122298E-1,-7.686448693E-1,1.787765026E-1
1.794658163E1,5.939270854E-1,-8.671178818E-1,1.699987501E-1
1.799636730E1,1.175262570E0,-1.662188053E0,3.696718216E-1
1.804616022E1,1.205856919E0,-2.147223711E0,7.383806705E-1
1.809592621E1,1.332708478E0,-1.945292473E0,7.881498933E-1
1.814570241E1,1.390999794E0,-1.497285247E0,1.029581308E0
1.819548157E1,1.288308382E0,-1.081449151E0,9.960041046E-1
1.824525564E1,1.165036082E0,-3.761166632E-1,6.511569023E-1
1.829503616E1,1.272244215E0,-3.179105818E-1,6.427201033E-1
1.834481053E1,1.088592887E0,-4.354730546E-1,7.054002285E-1
1.839458814E1,6.938061714E-1,-1.442300379E-1,5.830227137E-1
1.844436027E1,5.583045483E-1,-1.663875133E-1,4.745789766E-1
1.849413449E1,5.194011927E-1,-4.151478410E-1,4.399791658E-1
1.854390376E1,3.771246374E-1,-1.312764287E-1,2.716675103E-1
1.859369110E1,1.878911853E-1,7.990143448E-2,1.045063362E-1
1.864345751E1,3.059223890E-1,2.051963937E-3,3.117361106E-2
1.869323142E1,3.833458126E-1,5.037232116E-2,-5.720065534E-2
1.874301334E1,1.823091805E-1,1.581343710E-1,-9.589102864E-2
1.879278855E1,2.168237567E-1,1.431780756E-1,-1.110177711E-1
1.884258392E1,1.137062386E-1,1.317584664E-1,-1.855289936E-2
1.889235371E1,-1.009230614E-1,7.649259269E-2,4.463853687E-2
1.894213053E1,1.134505868E-1,-1.252257377E-1,1.509092301E-1
1.899189116E1,7.420626283E-2,-2.439813167E-1,1.977808326E-1
1.904167850E1,-7.271490246E-2,7.010100037E-2,7.020485401E-2
1.909144965E1,-4.331360385E-2,6.440848578E-3,1.077447534E-1
1.914120017E1,1.753423735E-2,-5.001812056E-2,1.525710225E-1
1.919102168E1,1.923866011E-2,2.864094451E-2,9.930785745E-2
1.924079142E1,-3.871167079E-2,3.264633194E-2,-7.900260389E-3
1.929056798E1,-1.020309329E-1,7.798396051E-2,3.522160649E-2
1.934033449E1,-5.626722425E-2,-6.616751105E-2,5.379980430E-2
1.939012116E1,-1.362046152E-1,3.980490565E-2,1.055010408E-2
1.943989913E1,-1.044171527E-1,7.018622011E-2,5.801824108E-2
1.948967111E1,3.138266504E-2,-5.981854722E-2,1.565764248E-1
1.953944683E1,-3.543066606E-2,-4.579968005E-2,2.087743729E-1
1.958922225E1,5.816339515E-3,-7.876293734E-3,1.236384735E-1
1.963898074E1,-3.393929824E-2,2.787395380E-2,1.333962977E-1
1.968879006E1,-5.081307516E-2,8.416248858E-2,9.381109476E-2
1.973854574E1,5.260271952E-2,-7.988811284E-2,7.340065390E-2
1.978832913E1,5.831253529E-2,-8.964592963E-2,3.309107572E-2
1.983811126E1,-8.963127434E-2,8.884964138E-2,-1.236731037E-1
1.988786725E1,-4.199268669E-2,5.714740232E-2,-1.733144075E-1
1.993765918E1,2.763293497E-2,-5.662276596E-2,-9.776591510E-2
1.998744152E1,-1.058871858E-2,-1.980724931E-2,-1.224800348E-1
2.003721486E1,-1.486894935E-1,7.207839284E-3,-1.151936129E-1
2.008698439E1,4.047967959E-4,-1.472979933E-1,-4.224436358E-2
2.013677991E1,6.385190040E-2,-7.601054758E-2,-1.977397129E-3
2.018654834E1,-1.345853955E-1,1.070017293E-1,-4.884898663E-2
2.023632626E1,-1.625592634E-2,-1.367132366E-2,3.824695945E-2
2.028610105E1,7.629417628E-2,-1.188168488E-2,1.012399700E-2
2.033588465E1,-1.300260872E-1,3.319427967E-1,-1.998607516E-1
2.038566074E1,-2.029327303E-1,7.436032295E-1,-2.647992074E-1
2.043543324E1,2.719192505E-1,8.152741194E-1,-2.183111012E-1
2.048520767E1,3.383490741E-1,8.608247638E-1,3.586076573E-2
2.053499147E1,3.106095493E-1,8.508965969E-1,1.092361137E-1
2.058477043E1,-2.258998007E-1,6.076755524E-1,4.447515011E-1
2.063453465E1,-4.366514981E-1,2.659564093E-2,7.877665162E-1
2.068432189E1,-5.023143888E-1,3.895269334E-2,7.936040759E-1
2.073409090E1,-4.865484834E-1,1.096435785E-1,4.669089913E-1
2.078387256E1,-2.366376817E-1,-7.750191540E-2,2.256055325E-1
2.083364449E1,-4.437674582E-1,2.136559188E-1,2.294977568E-2
2.088340876E1,-1.437892616E-1,1.523819715E-1,-2.335657030E-1
2.093319168E1,-2.354019433E-1,-2.143670022E-1,-1.082054824E-1
2.098297105E1,-1.014770046E-1,-4.422907531E-1,-5.289699137E-2
2.103274949E1,-1.527801156E-1,-4.266953170E-1,-1.796633601E-1
2.108252392E1,-1.321992278E-1,-1.882893145E-1,-1.848192513E-1
2.113230512E1,-2.842762768E-1,-2.330131084E-2,-1.885689646E-1
2.118208116E1,-1.374829113E-1,-2.913641930E-1,-1.887393892E-1
2.123186621E1,-2.845744491E-1,-2.473901659E-1,-3.876027763E-1
2.128160923E1,-3.648101091E-1,1.206371114E-1,-8.612616062E-1
2.133142324E1,-1.051841155E-1,3.858451545E-1,-1.141255379E0
2.138119496E1,6.960431486E-2,2.422901392E-1,-1.178071022E0
2.143095355E1,1.044597402E-1,9.362203628E-2,-1.272964716E0
2.148074329E1,3.726931512E-1,-1.298955828E-2,-1.377232552E0
2.153052262E1,6.716060638E-1,5.348289013E-2,-6.485072374E-1
2.158030433E1,5.528078675E-1,2.851990461E-1,-1.526482701E-1
2.163006887E1,5.072572231E-1,-2.415951192E-1,4.097403586E-2
2.167984329E1,7.208213210E-1,-1.077826977E0,2.378773838E-1
2.172963105E1,9.661300778E-1,-1.173658371E0,-7.092125714E-2
2.177940954E1,1.601517349E-1,-4.520313442E-2,-3.078358769E-1
2.182916907E1,3.717556894E-1,1.569412947E-1,-4.224435240E-2
2.187895762E1,1.610891521E-1,-2.053162456E-2,1.553553808E-2
2.192872621E1,4.399538413E-2,-2.324764729E-1,2.533596195E-2
2.197851074E1,3.814283013E-1,-3.169305325E-1,2.196826637E-1
2.202828657E1,2.397056371E-1,-1.839004606E-1,1.394896209E-1
2.207807600E1,2.224909514E-1,-2.003480941E-1,5.729387328E-2
2.212783840E1,3.126974702E-1,-1.082667261E-1,2.914387882E-1
2.217760736E1,2.298199236E-1,-2.063950524E-4,1.815036088E-1
2.222739001E1,1.832040101E-1,-6.314216554E-2,1.406400800E-1
2.227717683E1,3.477659225E-1,-8.159253001E-2,9.385370463E-2
2.232694944E1,1.314322203E-1,2.185987383E-1,2.414992452E-1
2.237672074E1,1.572542042E-1,1.762438267E-1,4.803738594E-1
2.242650215E1,3.046014905E-1,-2.619882859E-2,4.982277751E-1
2.247627376E1,2.541505694E-1,1.647390127E-1,4.763685167E-1
2.252603855E1,1.488173157E-1,-2.113416344E-1,6.096969247E-1
2.257582543E1,1.355654448E-1,-5.803915858E-1,1.165225282E-1
2.262560699E1,4.083155394E-1,-2.446630895E-1,-4.697412997E-2
2.267537454E1,2.577933716E-3,1.554073095E-1,-6.180260703E-2
2.272516605E1,2.428161800E-1,-2.346495837E-1,-3.156762123E-1
2.277490381E1,3.871380985E-1,-3.033804297E-1,-4.884620011E-1
2.282471876E1,-6.611026078E-2,2.676434815E-1,5.486507341E-2
2.287448423E1,-4.446409270E-2,6.899991035E-1,-1.714394987E-1
2.292423986E1,-1.455789208E-1,-3.885416314E-2,-5.884689093E-1
2.297402996E1,-4.583829045E-1,-4.684110284E-1,-3.126934171E-1
2.302381215E1,1.551662982E-1,2.929967642E-1,-1.434444040E-1
2.307359251E1,5.122426748E-1,6.541384012E-2,9.201216744E-4
2.312336741E1,2.645901740E-1,-1.127834544E-1,-3.357883990E-1
2.317315480E1,9.482977539E-2,3.614039719E-2,-5.912811756E-1
2.322289939E1,-2.058302313E-1,-3.061075211E-1,-2.640322149E-1
2.327270850E1,-1.592569202E-1,-1.271858066E-1,-3.030634522E-1
2.332248381E1,8.809730411E-2,2.723479457E-2,-3.534717560E-1
2.337223262E1,9.836643934E-2,-6.944852322E-2,-1.446375102E-1
2.342203772E1,3.937853277E-1,1.387465894E-1,-5.110735819E-2
2.347181220E1,1.842693090E-1,2.187691629E-1,1.259540860E-2
2.352157902E1,-6.152322888E-1,-6.324964343E-4,-1.441687644E-1
2.357135558E1,-7.074841857E-1,-8.436220139E-2,-1.418251693E-1
2.362115053E1,-6.058579683E-1,-2.112817019E-2,8.729168773E-2
2.367091668E1,-6.632332504E-2,8.544078469E-2,-2.975946292E-2
2.372069887E1,-1.152828336E-1,1.053399295E-1,4.826043546E-2
2.377046595E1,-1.142175570E-1,7.568299025E-2,-2.110953070E-2
2.382025496E1,-2.724305093E-1,2.037449554E-2,-4.791156203E-2
2.387002663E1,-3.714147806E-1,2.361289598E-2,-3.815374896E-2
2.391981048E1,-1.250832677E-1,5.957619473E-2,7.737805601E-3
2.396957694E1,-9.171918780E-2,8.718784153E-2,1.238515452E-1
2.401936439E1,-7.395058870E-2,8.271371573E-2,2.019992918E-1
2.406913496E1,-1.036927700E-1,3.878225759E-2,1.142215282E-1
2.411890954E1,-5.268793553E-2,4.858267680E-2,2.075386494E-1
2.416869079E1,-2.105600238E-1,4.457728565E-2,2.026530541E-2
2.421845512E1,5.307143554E-2,7.495860010E-2,1.213375181E-1
2.426823058E1,-1.219300702E-1,7.206109166E-2,6.888393313E-2
2.431801819E1,-1.501382589E-1,4.675043002E-2,1.653542072E-1
2.436778579E1,6.285055075E-3,2.987664752E-2,1.504404992E-1
2.441757564E1,-8.281359076E-2,4.858267307E-2,6.440981477E-2
2.446730959E1,-3.859875798E-1,4.687825963E-2,-2.105227206E-3
2.451711736E1,-3.417152464E-1,1.050842553E-1,-1.476055942E-2
2.456689986E1,7.648593746E-3,2.327201702E-2,4.101664200E-2
2.461668439E1,-3.802990168E-2,-3.438005224E-2,1.284534931E-1
2.466645631E1,-6.470410526E-2,-3.229213506E-2,1.228289008E-1
2.471623762E1,-1.455149986E-2,6.014744285E-3,7.148317993E-2
2.476599334E1,-1.377386004E-1,2.392847091E-3,3.590337187E-2
2.481577746E1,-1.847806424E-1,-1.328783296E-2,9.078575671E-2
2.486555100E1,-6.947649270E-2,1.283243112E-2,1.360381395E-1
2.491533767E1,-1.726792455E-1,3.094191290E-2,8.026094735E-2
2.496511866E1,-6.099699438E-2,1.206544414E-2,-1.595365256E-2
2.501488767E1,-7.782816142E-2,-1.422526315E-2,-2.643585019E-2
2.506467038E1,-1.183933914E-1,-5.508877337E-2,1.115370840E-1
2.511443840E1,-1.506282575E-2,-4.345609248E-2,2.070699185E-1
2.516422991E1,-8.243009448E-2,-9.335303307E-2,2.259463966E-1
2.521400605E1,-9.372189641E-2,-7.652187347E-2,2.864533663E-1
2.526377855E1,-1.693556160E-1,-1.017473117E-1,2.793374658E-1
2.531356053E1,-1.200551987E-1,-5.905156210E-2,2.000391930E-1
2.536332298E1,-2.181020826E-1,2.148237638E-2,1.522301584E-1
2.541309814E1,-5.584110692E-2,6.400769949E-2,4.728038236E-2
2.546286282E1,-3.166175783E-1,4.530166462E-2,-1.714395136E-1
2.551267459E1,-1.762159169E-1,1.349116266E-1,-1.895916015E-1
2.556243866E1,1.569133103E-1,8.752871305E-2,-1.301499307E-1
2.561222694E1,1.985438466E-1,-3.126948327E-2,1.026314795E-1
2.566199569E1,7.654984295E-2,1.645432413E-2,-5.562406406E-2
2.571174251E1,8.745815605E-2,2.420944348E-2,-2.472436428E-1
2.576154157E1,6.666419655E-2,6.115277857E-2,-3.645930886E-1
2.581133168E1,-3.935083747E-2,5.050014704E-2,-2.887463570E-1
2.586109887E1,9.789772332E-2,-9.452882223E-3,2.993790060E-2
2.591088262E1,-1.003691182E-1,-5.788375624E-3,1.672716588E-1
2.596063892E1,-5.903689563E-2,-4.183689132E-2,2.715823352E-1
2.601042897E1,1.983733922E-1,-1.267597228E-1,4.760702848E-1
2.606021048E1,-2.148210555E-1,-5.364001542E-2,-1.267264597E-2
2.610998137E1,-3.555849567E-2,-1.271432042E-1,5.005007610E-2
2.615975741E1,3.046655795E-3,-5.381045491E-2,-8.826374263E-2
2.620952819E1,8.076828718E-2,3.268894181E-2,-2.999103367E-1
2.625931913E1,1.031388193E-1,1.018884704E-1,-1.756579876E-1
2.630906574E1,1.280446723E-2,5.050014332E-2,-2.703812122E-1
2.635886944E1,-1.683755517E-1,7.167759538E-2,-2.618164718E-1
2.640863886E1,-6.973215938E-2,5.893703178E-2,-3.674760461E-2
2.645842215E1,-5.924995616E-2,1.053399071E-1,-1.676325500E-2
2.650820532E1,-1.097221486E-2,6.673478335E-2,-1.510144398E-2
2.655797001E1,-1.080177166E-2,1.006527692E-1,-1.567388922E-1
2.660775944E1,8.762858063E-2,2.679417431E-1,-6.236652136E-1
2.665753376E1,9.355145693E-2,2.660669088E-1,-6.556657553E-1
2.670732699E1,-9.090959281E-2,1.292870194E-1,-4.776389003E-1
2.675708387E1,-9.180442244E-2,1.331219822E-1,-1.868645102E-1
2.680684861E1,1.777498871E-1,5.578386039E-2,3.577554598E-2
2.685664824E1,8.796946704E-2,6.311286986E-2,-5.215798039E-3
2.690640236E1,-9.811077267E-2,7.717435807E-2,-1.300220788E-1
2.695619116E1,-8.387885243E-2,-2.999116294E-2,-1.015582532E-1
2.700596084E1,-1.431927234E-1,-4.324304312E-2,-1.886115670E-1
2.705574965E1,2.251967415E-2,-1.077380963E-2,-7.467097789E-2
2.710552371E1,1.321992129E-1,-1.247823238E-2,4.140013829E-2
2.715530386E1,2.002056390E-1,-3.928026184E-2,5.256409571E-2
2.720505892E1,1.852067113E-1,-2.257693186E-2,-6.423141062E-2
2.725485360E1,4.009013176E-1,-2.309424728E-1,1.711213216E-2
2.730461793E1,5.641849041E-1,-2.423621714E-1,4.237020016E-1
2.735440845E1,5.567068234E-2,-1.951070130E-1,4.437288940E-1
2.740418423E1,-3.040262498E-2,-2.177758515E-1,5.043635368E-1
2.745395121E1,-1.263189614E-1,-1.884171516E-1,5.719439983E-1
2.750375407E1,-1.985012144E-1,-2.360557616E-1,4.597077370E-1
2.755351209E1,-1.630066633E-1,-1.577801853E-1,3.984338641E-1
2.760331084E1,1.509052068E-1,-9.923328459E-2,2.805305123E-1
2.765307058E1,1.977342218E-1,-1.729322225E-2,2.192139328E-1
2.770283991E1,3.396699727E-1,-1.837300211E-1,2.746928632E-1
2.775261584E1,3.935083002E-2,-1.882041097E-1,3.624427319E-2
2.780240423E1,-1.843971759E-1,7.730218023E-2,-2.941578627E-1
2.785217251E1,9.610807151E-2,2.338107079E-1,-5.228061676E-1
2.790195657E1,2.398333699E-1,2.171073407E-1,-5.554459095E-1
2.795173173E1,2.346775532E-1,3.392465785E-2,-4.024312794E-1
2.800151220E1,-1.614726335E-1,-1.332791448E-1,-1.199660152E-1
2.805128548E1,-1.529931575E-1,-1.151270345E-1,-6.920219399E-3
2.810104767E1,3.389668465E-2,2.714957669E-2,5.593032762E-2
2.815083751E1,-6.926343590E-2,6.307025999E-2,6.466548890E-2
2.820059762E1,-2.019952685E-1,9.430378675E-2,-6.099299714E-2
2.825039230E1,-1.342871338E-1,1.805901378E-1,-1.668801755E-1
2.830017064E1,-8.183355629E-2,1.926489025E-1,-1.561849415E-1
2.834995199E1,-2.818687819E-2,1.204240695E-1,1.839044318E-2
2.839971189E1,3.406713530E-2,4.381030053E-2,8.119837940E-2
2.844949480E1,4.467715323E-2,1.563021094E-1,3.730953112E-2
2.849927199E1,2.343577798E-4,1.992961764E-1,-1.787112653E-2
2.854903147E1,7.339666784E-2,7.159237564E-2,3.846000880E-2
2.859882579E1,1.609613299E-1,1.858485676E-2,1.503552943E-1
2.864859314E1,3.109504580E-1,1.202283055E-2,2.569668591E-1
2.869836631E1,2.060219273E-2,-1.327251941E-1,2.436723858E-1
2.874812709E1,-1.435336024E-1,-2.691641450E-1,1.624566764E-1
2.879793756E1,-2.141392827E-1,-3.479083478E-1,2.164442837E-1
2.884767704E1,6.005956233E-2,-3.544277847E-1,3.659646213E-1
2.889747189E1,2.328452915E-1,-5.137061477E-1,6.114012003E-1
2.894724543E1,3.444848955E-1,-5.014768243E-1,6.118274927E-1
2.899702340E1,2.170794010E-1,-4.613803029E-1,5.079429746E-1
2.904681923E1,-9.512803704E-2,-3.528938293E-1,2.139302343E-1
2.909657308E1,-1.248702034E-1,-2.590228021E-1,-3.806852922E-2
2.914635199E1,-2.215535492E-1,3.234806284E-2,-4.330961779E-2
2.919615876E1,1.450889185E-2,1.882174164E-1,1.800694875E-2
2.924592840E1,-3.670898452E-2,2.895027101E-1,1.686352342E-1
2.929570543E1,6.317012757E-2,9.801091254E-2,3.097186983E-1
2.934547725E1,1.015196219E-1,-2.436657250E-2,3.600417972E-1
2.939523949E1,1.828631461E-1,-1.017473266E-1,2.569668591E-1
2.944503043E1,-6.157226395E-3,-3.399655223E-2,1.725979894E-1
2.949480522E1,2.447975613E-2,-9.970201552E-2,2.460159659E-1
2.954457267E1,1.343297213E-1,-2.846743464E-1,4.075524509E-1
2.959436329E1,3.909516707E-2,-2.385697663E-1,4.869360030E-1
2.964412918E1,-8.415581658E-3,-1.982601881E-1,4.429194331E-1
2.969387845E1,-2.814426459E-2,-1.203255132E-1,5.089229345E-1
2.974369319E1,-8.622243255E-2,-9.876456112E-2,4.222532213E-1
2.979347501E1,3.223487362E-2,-1.956609637E-1,3.386513591E-1
2.984324845E1,9.779119864E-3,-3.531495333E-1,4.424932301E-1
2.989303558E1,7.710377872E-2,-4.280588925E-1,2.887543142E-1
2.994280465E1,-1.957954653E-2,-4.527303576E-1,3.424437344E-1
2.999256991E1,-3.577154875E-2,-1.610185951E-1,2.411157787E-1
3.004235829E1,-7.394846082E-1,4.765203595E-1,-8.758198470E-2
3.009212439E1,-3.077546358E-1,7.347403169E-1,-2.070619464E-1
3.014190709E1,-2.961434424E-3,1.021867469E-1,-9.929988533E-2
3.019168829E1,9.069655091E-2,-1.805342436E-1,-9.269525111E-2
3.024146345E1,2.647606730E-1,-4.209255427E-2,-1.513273418E-1
3.029124038E1,2.797169089E-1,-1.277650520E-2,2.452635951E-2
3.034101939E1,2.365524024E-1,-2.231021374E-1,-1.764343702E-3
3.039078944E1,2.228318155E-1,-1.862440258E-1,9.295889735E-2
3.044056564E1,-4.331361502E-2,2.861567307E-3,1.888325959E-1
3.049034657E1,-6.760162115E-2,1.458625346E-1,1.330554187E-1
3.054012913E1,-1.432353407E-1,1.143733561E-1,1.230419427E-1
3.058989353E1,-3.232009709E-2,1.982056722E-2,7.932351530E-2
3.063967879E1,2.790990286E-3,-3.267562762E-2,5.477984995E-2
3.068944238E1,-4.829904437E-2,1.031241715E-1,4.122969508E-2
3.073922483E1,-1.020309478E-1,5.667868629E-2,1.227436662E-1
3.078901692E1,-1.360341460E-1,1.031841151E-2,1.036115289E-1
3.083877488E1,-1.189473122E-1,1.037633345E-1,1.547015756E-1
3.088856337E1,-7.902125269E-2,1.254094690E-1,-4.177564010E-2
3.093833103E1,1.740640774E-2,3.403370678E-1,-1.669228077E-1
3.098810942E1,2.042110115E-1,4.685521126E-1,-2.536352575E-1
3.103788598E1,3.020448387E-1,2.047503442E-1,-2.024600208E-1
3.108765884E1,-4.840769470E-1,-4.449325800E-1,-2.634356320E-1
3.113743983E1,-5.499529839E-1,-3.168453276E-1,-2.890446186E-1
3.118722233E1,1.847806126E-1,1.401424766E0,-8.882341981E-1
3.123698306E1,-3.915270269E-1,3.354115784E-2,-9.684696198E-1
3.128677343E1,-1.580212116E-1,-5.428090692E-1,-2.789885402E-1
3.133653478E1,-4.280015826E-1,-1.226690784E-1,-3.919064701E-1
3.138633442E1,-6.808100343E-1,4.652712047E-1,-2.283671945E-1
3.143610265E1,-5.809307694E-1,1.136600375E0,-3.126082420E-1
3.148588514E1,-1.302391291E-1,1.435086966E0,-7.368388176E-1
3.153566046E1,-1.068885550E-1,-9.429646730E-1,-6.938874722E-1
3.158543457E1,-4.561460018E-2,-1.223342061E0,2.631600760E-2
3.163521978E1,-1.765567809E-1,-6.544314325E-2,3.327284455E-1
3.168499358E1,-1.676085889E-1,-4.595054686E-1,2.608018219E-1
3.173477067E1,-2.820178866E-1,-1.162348986E-1,5.797416568E-1
3.178453718E1,-2.299903929E-1,4.871050641E-2,4.391416162E-2
3.183430046E1,-1.746393293E-1,1.010534167E-2,-1.770641208E-1
3.188409270E1,-4.489020258E-2,-2.713372707E-1,-8.532362431E-2
3.193387582E1,-5.603499413E-1,-7.673493028E-2,-4.474706054E-1
3.198365577E1,-3.966827989E-1,5.279513597E-1,-5.529743433E-1
3.203343613E1,1.316026747E-1,7.522957921E-1,-3.841939270E-1
3.208321238E1,6.477867961E-1,1.685935616E0,-8.944125175E-1
3.213297535E1,-2.028048784E-1,-2.149183750E0,-5.193120837E-1
3.218275540E1,2.483981252E-1,-9.262186885E-1,7.890021801E-1
3.223253853E1,-1.274268478E-1,1.563941598E0,-5.983120203E-1
3.228230994E1,-2.907103896E-1,-7.907597423E-1,-2.291767895E-1
3.233208686E1,-2.085146606E-1,-8.571470976E-1,5.212799311E-1
3.238187061E1,7.066960633E-2,2.473608702E-1,-4.042635262E-1
3.243163718E1,-5.128178746E-2,3.097427189E-1,-5.245957375E-1
3.248141837E1,-2.141392827E-1,-4.761660993E-1,-9.550756216E-2
3.253119921E1,1.261059046E-1,3.810048848E-2,-6.904638559E-2
3.258096837E1,1.258928478E-1,2.300609499E-1,-2.719151676E-1
3.263074462E1,2.648884356E-1,2.397335768E-1,-3.457446024E-2
3.268052395E1,2.068741992E-2,1.573247761E-1,-1.102081835E-1
3.273030895E1,2.980394363E-1,-2.172218561E-1,-4.394878447E-2
3.278008473E1,-2.579002976E-1,-3.723494709E-2,-2.854227424E-1
3.282985567E1,1.137062386E-1,1.103960633E0,-2.596433461E-1
3.287964087E1,6.325534731E-2,5.430779457E-1,-8.048452139E-1
3.292941072E1,1.145584509E-1,-5.130669475E-1,-8.556369543E-1
3.297918238E1,3.370281160E-1,-4.659822881E-1,-6.570292711E-1
3.302893488E1,1.905756444E-1,-3.364461362E-1,-1.089611411E0
3.307874509E1,4.901278019E-1,3.584039509E-1,-9.251776338E-1
3.312851134E1,1.181377396E-1,-1.446561217E-1,-6.984042525E-1
3.317830275E1,3.462746143E-1,-6.408985853E-1,-2.613478005E-1
3.322807759E1,6.027261540E-2,-7.949783206E-1,1.459810231E-2
3.327783785E1,3.704985231E-2,-1.826221347E-1,1.108979210E-1
3.332762452E1,-4.367793500E-1,-2.103615999E-1,3.586356640E-1
3.337740457E1,-7.808382064E-2,3.426552936E-2,7.524423003E-1
3.342716192E1,2.858954370E-1,-8.409551382E-1,4.244688749E-1
3.347695494E1,1.006652713E0,-2.957531214E-1,-4.576637875E-3
3.352673332E1,6.417787075E-1,4.217231870E-1,-4.769571424E-1
3.357651712E1,5.370846391E-1,7.889593020E-3,-5.965223312E-1
3.362629994E1,4.115538895E-1,-1.064597256E-2,2.704038657E-2
3.367605931E1,-1.595764793E-2,-4.601872265E-1,-2.745144665E-1
3.372583014E1,-2.834666371E-1,3.740846217E-1,-2.437922508E-1
3.377561759E1,-3.018317819E-1,6.440649629E-1,3.819436133E-1
3.382539869E1,-1.590864658E-1,2.283565849E-1,6.470812112E-2
3.387518040E1,3.163832799E-2,-2.958809435E-1,2.711135745E-1
3.392495197E1,2.806969583E-1,-1.911016554E-1,2.231060900E-2
3.397471337E1,1.447267085E-1,5.170003772E-1,9.291628748E-2
3.402450666E1,2.762676239E0,9.526931643E-1,1.499718130E-1
3.407427749E1,2.646561623E0,4.400031865E-1,6.089299917E-1
3.412405483E1,-5.439448953E-1,-9.608011693E-2,5.197886825E-1
3.417383561E1,3.879477084E-1,7.201847434E-2,1.042080745E-1
3.422361765E1,1.790217876E0,4.563655555E-1,-6.508361548E-2
3.427338738E1,1.762862086E0,6.808805466E-1,-1.437852830E-1
3.432314478E1,4.761515260E-1,3.239746094E-1,-4.534023348E-3
3.437295395E1,7.778554410E-2,-2.777541429E-2,-4.313917831E-2
3.442271301E1,7.316870093E-1,2.290809304E-1,1.867447197E-1
3.447249166E1,2.952271402E-1,2.232006937E-1,1.595591754E-1
3.452227348E1,4.812861234E-2,-1.521130055E-1,2.051524669E-1
3.457205290E1,-3.555849940E-2,-3.165297583E-2,2.379625440E-1
3.462182671E1,1.478372514E-1,-1.054970548E-1,1.748137474E-1
3.467160332E1,4.846949503E-2,-1.411194652E-1,-1.113866363E-2
3.472135916E1,4.910865426E-2,-9.744364768E-2,-9.512405097E-2
3.477112962E1,8.920516819E-2,-3.757583722E-2,-7.275350392E-2
3.482094145E1,-1.059745669E0,8.420509100E-2,1.410662085E-1
3.487069530E1,-2.270929068E-1,-2.403593957E-1,-6.623411179E-2
3.492049113E1,2.913069725E-1,1.433485150E-1,-2.013947368E-1
3.497026077E1,2.225335389E-1,-6.331261247E-2,-6.621944718E-3
3.502003520E1,-4.459193349E-2,-7.549922168E-2,3.961050138E-2
3.506980400E1,-1.216317937E-1,-1.330660582E-1,-7.143257558E-2
3.511958254E1,-2.222352624E-1,-8.696145564E-2,2.411490306E-3
3.516937478E1,-5.816552043E-1,-7.592532784E-2,-1.180485263E-1
3.521914494E1,-5.285198092E-1,-1.965557933E-1,-1.884837151E-1
3.526893535E1,1.241032034E-1,-3.511893749E-1,-3.973034024E-2
3.531869936E1,5.486320853E-1,-2.374192923E-1,-6.751242280E-2
3.536847134E1,-2.978263795E-1,-4.362653568E-2,-9.286568314E-2
3.541824087E1,-1.400821656E-1,-6.599707901E-2,1.138380468E-1
3.546800942E1,-6.734596193E-2,3.026013635E-2,7.567365188E-3
3.551781176E1,-2.192951888E-1,-8.998680860E-2,5.980789289E-2
3.556758608E1,-1.618561596E-1,-1.729322039E-2,-2.351848781E-1
3.561732598E1,-1.105743647E-2,3.588473797E-2,-9.426051974E-1
3.566713806E1,7.075481117E-2,1.321845502E-1,-1.082410574E0
3.571692218E1,1.967542022E-1,2.722027898E-1,-8.877653480E-1
3.576669801E1,-2.953975797E-1,-2.074214667E-1,1.792452633E-1
3.581647566E1,-1.686738282E-1,-7.669231296E-2,3.747850657E-1
3.586623046E1,-2.742201090E-1,-2.789645493E-1,4.470098913E-1
3.591600936E1,-7.072285414E-1,-5.100840926E-1,3.885056376E-1
3.596580061E1,-6.474884748E-1,-1.970670819E-1,1.572582126E-1
3.601557582E1,-7.765772194E-2,4.258564115E-1,-2.791163623E-1
3.606536390E1,-7.696529031E-1,-5.012211800E-1,-4.475838318E-2
3.611508874E1,-5.189325213E-1,-3.723242879E-1,1.065090522E-1
3.616491400E1,-2.894747257E-1,9.157671779E-2,-1.146822795E-1
3.621469390E1,-5.799081922E-1,4.274503142E-2,-1.616390795E-1
3.626445608E1,-8.255579472E-1,-2.133443356E-1,-6.896117330E-2
3.631424171E1,-8.085988760E-1,2.330437005E-1,1.002879068E-1
3.636400916E1,-7.051404715E-1,7.879354060E-2,1.450715810E-1
3.641379952E1,-5.480354428E-1,4.670781642E-2,1.169486195E-1
3.646357066E1,-4.259989560E-1,1.400674880E-1,1.291352510E-1
3.651335999E1,-3.052406013E-1,-3.646796569E-2,6.262017787E-2
3.656313582E1,3.491934016E-2,-1.654926986E-1,1.913892478E-1
3.661289457E1,-5.017391220E-2,-1.299128979E-1,-9.732515551E-3
3.666269046E1,-7.861645892E-3,-6.199168786E-2,4.344543815E-2
3.671245561E1,-1.220579222E-1,-6.037247926E-2,-3.193260729E-2
3.676222692E1,2.433701307E-1,5.759307742E-1,-6.495578587E-2
3.681200598E1,3.691990674E-1,-3.996206075E-2,6.644687383E-4
3.686178259E1,4.718052745E-1,-8.103859425E-2,4.476916194E-1
3.691157426E1,2.598603964E-1,-2.110859454E-1,1.288795769E-1
3.696135186E1,1.787299067E-1,-8.994422108E-2,-1.118699908E-1
3.701112025E1,3.625944257E-1,3.135350049E-1,-1.390129030E-1
3.706089879E1,3.761446178E-1,1.075982749E-1,-1.586844027E-2
3.711067650E1,3.192169070E-1,1.398291625E-2,-1.280047279E-2
3.716045483E1,-4.665855784E-3,-1.752505153E-1,-7.258307189E-2
3.721022900E1,2.066608053E-3,-1.758470833E-1,-1.684993953E-1
3.726000952E1,-2.682546675E-1,1.295853108E-1,-1.801320910E-1
3.730977061E1,-4.849292636E-1,2.071365267E-1,-1.678602397E-1
3.735957249E1,-1.574672759E-1,2.356003523E-1,-4.599408805E-2
3.740934567E1,-5.320565701E-1,2.386256903E-1,-8.894551545E-2
3.745909317E1,-3.960010409E-1,3.918958306E-1,-1.294255257E-1
3.750889869E1,1.825861819E-2,8.041276038E-2,-2.562624775E-2
3.755866738E1,4.162410796E-1,-2.892589942E-2,-6.482795626E-2
3.760843681E1,2.890060246E-1,3.026014380E-2,-3.248654306E-2
3.765822462E1,2.707260847E-1,1.303097010E-1,-1.970338076E-2
3.770800223E1,2.819752693E-1,1.188048646E-1,8.632629178E-3
3.775777712E1,3.447832167E-1,3.158108145E-2,-5.641903263E-3
3.780754322E1,2.687233686E-1,1.151150465E-2,3.173886538E-1
3.785733077E1,4.009439051E-1,4.133887962E-2,6.142708659E-2
3.790709874E1,1.559758782E-1,-6.893719733E-2,-1.640252769E-1
3.795688853E1,1.341166794E-1,1.058938578E-1,-1.718656272E-1
3.800666655E1,1.101269722E-1,1.040615961E-1,-5.434575677E-2
3.805644051E1,-7.791338861E-2,1.216171458E-1,1.303617260E-3
3.810617025E1,-1.868472062E-2,1.841440983E-2,-2.488722559E-3
3.815598369E1,-8.264314383E-2,8.045537025E-2,-9.141694754E-2
3.820575916E1,-3.376885504E-2,-1.226517744E-2,-3.235870972E-2
3.825556020E1,-7.399319857E-2,6.264415383E-2,-5.877724290E-2
3.830529624E1,4.143875465E-2,-2.321608923E-2,9.837043285E-2
3.835510030E1,-8.387885243E-2,1.219327003E-2,8.078692481E-3
3.840487843E1,4.936431348E-2,3.500720486E-3,-1.429184154E-2
3.845465832E1,2.490373105E-1,-2.483529225E-2,1.070203707E-1
3.850444421E1,3.177255392E-1,3.886747733E-2,-1.868073083E-2
3.855422332E1,5.054249763E-1,2.777421772E-1,-6.883334368E-2
3.860397712E1,1.444284320E-1,3.831353039E-2,5.933917686E-2
3.865376072E1,-4.872515798E-2,1.221284866E-1,-8.667250164E-3
3.870354265E1,-1.437040567E-1,1.594300196E-2,-2.788460813E-2
3.875331973E1,-3.555848449E-2,4.244675860E-2,-8.241146803E-3
3.880309436E1,7.135135680E-2,-6.896250881E-3,-1.595365256E-2
3.885287343E1,1.778776795E-1,-2.679537423E-2,-4.348007217E-2
3.890261176E1,2.003334761E-1,2.446511015E-2,7.311701775E-3
3.895241129E1,1.923866011E-2,5.339766294E-2,-1.023252159E-1
3.900220291E1,3.121222369E-2,3.976229578E-2,-7.151781768E-2
3.905197603E1,3.189398721E-2,6.618083268E-2,-4.036949202E-2
3.910176066E1,3.653854132E-2,2.011883073E-2,3.306312021E-3
3.915152546E1,5.153745785E-2,2.680868469E-2,-4.832302686E-3
3.920130504E1,-1.283216625E-1,2.570081316E-2,-2.157824486E-2
3.925107790E1,-2.999143004E-1,7.133670896E-2,2.027994720E-3
3.930083093E1,-5.844036117E-2,-1.725061238E-2,1.285107341E-2
3.935063254E1,-3.807251900E-2,-1.656884700E-2,-9.604684077E-3
3.940042764E1,-5.946300924E-2,5.838309973E-2,7.651121914E-2
3.945021468E1,9.693895467E-3,-3.024682589E-2,1.209114194E-1
3.949994754E1,-1.247849688E-1,1.952228695E-2,-1.662836522E-1
3.954974697E1,-1.833318472E-1,1.151403487E-1,-5.055340379E-2
3.959952749E1,-1.727644205E-1,6.051363051E-2,2.063882053E-1
3.964930280E1,-1.084651202E-1,-4.724843055E-2,1.100457087E-1
3.969907442E1,2.442223132E-1,3.256111220E-2,-5.215797573E-3
3.974881858E1,1.650519222E-1,-1.063492522E-1,-1.853731573E-1
3.979863077E1,-2.493355423E-1,2.608430572E-2,-2.244044244E-1
3.984840004E1,-2.648884058E-1,1.511036158E-1,-2.114082277E-1
3.989817119E1,-4.097003117E-2,5.203412846E-2,-3.693655133E-1
3.994796936E1,8.460323513E-2,5.297156051E-2,8.349934965E-2
3.999773947E1,9.389233589E-2,2.970021367E-1,3.395035565E-1
4.004752197E1,9.938908368E-2,4.977576435E-2,7.531812042E-2
4.009729030E1,4.868253320E-2,6.762958318E-2,-2.251568064E-2
4.014704837E1,-7.493063807E-2,-6.214481778E-3,-9.836246073E-2
4.019684410E1,-2.904973626E-1,4.905139655E-2,-2.171606272E-1
4.024662765E1,-2.092390507E-1,1.052547172E-1,-2.962457836E-1
4.029640238E1,-5.264534056E-2,1.632649638E-2,-8.255392313E-2
4.034617994E1,2.320357114E-1,1.561316848E-1,9.819999337E-2
4.039595634E1,1.216317713E-1,1.172708720E-1,8.443677425E-2
4.044573473E1,-2.370637953E-1,1.259634048E-1,-1.303203553E-1
4.049550452E1,-4.401881993E-1,1.685739458E-1,7.966440171E-2
4.054529681E1,-9.474455565E-2,1.823798120E-1,5.750691891E-2
4.059505436E1,2.291808277E-1,-5.636709183E-2,-7.876159996E-2
4.064484306E1,-6.760162115E-2,-3.007638268E-2,-1.167795737E-3
4.069462218E1,1.905756742E-1,2.315523475E-1,2.441411316E-1
4.074438764E1,6.558828950E-1,1.323124021E-1,2.576486468E-1
4.079416718E1,5.958445072E-1,3.009223342E-1,2.267560065E-1
4.084395134E1,5.315026641E-1,3.192875087E-1,4.092143476E-1
4.089372374E1,5.383842438E-2,-1.901642084E-1,-1.036035493E-1
4.094351530E1,2.028474957E-1,-1.205385700E-1,-2.139648497E-1
4.099326942E1,-3.287190199E-1,2.875426114E-1,-1.258036345E-1
4.104305681E1,-2.448614985E-1,2.459973246E-1,-3.122673333E-1
4.109281608E1,-5.493990779E-1,9.732915461E-2,-3.735839427E-1
4.114259712E1,-2.254310995E-1,3.436607122E-1,6.654035300E-2
4.119237640E1,3.818970323E-1,5.468277931E-1,3.247602284E-1
4.124215301E1,2.132870853E-1,3.256364167E-1,4.410869777E-1
4.129193817E1,2.927131057E-1,2.407136112E-1,2.756303251E-1
4.134171853E1,-1.135571487E-2,5.727522820E-2,-1.500064284E-1
4.139150176E1,-2.607552111E-1,4.166525602E-1,2.637845874E-1
4.144127348E1,-5.458623767E-1,6.435962915E-1,4.728319347E-1
4.149103738E1,-5.047432184E-1,5.126966834E-1,3.106561303E-1
4.154081994E1,-4.585959315E-1,5.603951216E-2,5.056139827E-2
4.159058572E1,1.147288978E-1,3.269147575E-1,2.218557894E-1
4.164037921E1,-1.880189925E-1,1.141602993E-1,2.620801628E-1
4.169015759E1,2.153962664E-2,8.957400918E-2,-1.365414858E-1
4.173992978E1,1.551662832E-1,3.313462138E-1,-5.177354217E-1
4.178970660E1,-2.323765606E-1,7.764306664E-2,-3.267975152E-1
4.183948921E1,-5.838710070E-1,3.724827245E-2,-2.153709978E-1
4.188926900E1,-8.803977966E-1,-7.081206143E-2,-5.628600121E-1
4.193904775E1,-1.999499649E-1,5.538583994E-1,-7.101219893E-1
4.198881952E1,-6.370277610E-3,1.851494312E-1,-2.260236591E-1
4.203858374E1,-6.309982538E-1,-4.589514136E-1,-6.792387925E-3
4.208835525E1,-9.889695644E-1,-5.549955964E-1,-9.891640395E-2
4.213815916E1,-6.093520522E-1,-2.556991875E-1,3.662775084E-2
4.218792238E1,-2.538097203E-1,5.631243344E-3,1.777964979E-1
4.223769650E1,-4.588090181E-1,3.217762336E-2,-1.805581897E-1
4.228747916E1,-4.693548754E-2,3.464303613E-1,-3.475488424E-1
4.233724035E1,2.761802077E-1,1.117314994E-1,3.267203867E-1
4.238701103E1,3.687303364E-1,4.267086983E-1,7.065931559E-1
4.243680421E1,8.443917036E-1,6.026049256E-1,8.514690995E-1
4.248657994E1,1.001880407E0,1.217875928E-1,9.641740322E-1
4.253637348E1,7.223126292E-1,2.961499691E-1,6.548640728E-1
4.258614468E1,2.454580367E-1,6.532688141E-1,7.004999518E-1
4.263592296E1,2.155880034E-1,-2.261274755E-1,4.506317973E-1
4.268569744E1,-2.213404924E-1,1.895383745E-1,-5.856566429E-1
4.273546384E1,-2.809952497E-1,3.416153789E-1,-6.925664544E-1
4.278525009E1,-3.956175148E-1,-2.653292120E-1,-3.035748303E-1
4.283502457E1,-4.248910546E-1,3.987134993E-1,-2.390198559E-1
4.288481077E1,-1.981177479E-1,5.891826153E-1,-2.627964914E-1
4.293458650E1,1.431501061E-1,5.711157322E-1,-8.695257129E-4
4.298437218E1,4.233996272E-1,9.016031623E-1,1.364216506E-1
4.303414520E1,4.628995955E-1,1.009706259E0,5.533378199E-2
4.308391816E1,7.552079558E-1,1.147167683E0,1.001600623E-1
4.313368681E1,1.104145646E0,1.247898936E0,8.281757683E-2
4.318344999E1,1.166143894E0,1.261662245E0,-6.964294612E-2
4.323324082E1,1.502213359E0,1.278833985E0,-3.814668357E-1
4.328301629E1,1.382434845E0,1.451705217E0,-5.447505713E-1
4.333278666E1,9.676214457E-1,1.100168228E0,-6.549413204E-1
4.338256613E1,9.417144060E-1,5.509609580E-1,-6.167197227E-1
4.343235671E1,6.889911890E-1,-6.514486670E-2,-2.700829208E-1
4.348213551E1,2.853415310E-1,-4.635960758E-1,1.020775437E-1
4.353190884E1,-4.923648015E-2,-5.474963188E-1,5.647854209E-1
4.358168947E1,-2.447762638E-1,-6.003333330E-1,9.723979831E-1
4.363146249E1,-1.112348065E-1,-4.270361364E-1,8.314421773E-1
4.368124197E1,1.702504307E-1,-2.104468048E-1,5.015940070E-1
4.373101306E1,4.127044380E-1,8.356592804E-2,1.982921362E-1
4.378079061E1,5.611595511E-1,4.597318470E-1,-1.065862998E-1
4.383056692E1,6.642769575E-1,3.301531672E-1,-3.913379833E-2
4.388034952E1,7.066747546E-1,-4.622577876E-2,4.736561701E-2
4.393012015E1,7.000698447E-1,-3.206802905E-1,9.415198117E-2
4.397989863E1,6.330009103E-1,-5.292589664E-1,-9.150215238E-2
4.402967619E1,4.931103885E-1,-5.682475567E-1,-1.948753446E-1
4.407943738E1,3.768689930E-1,-1.694980711E-1,-2.745144069E-1
4.412922608E1,2.248771638E-1,3.498818278E-1,-3.298229277E-1
4.417901030E1,1.035649329E-1,6.392500401E-1,-5.255758166E-1
4.422880483E1,-1.242097467E-2,5.369420648E-1,-3.397510946E-1
4.427856186E1,-1.966689825E-1,3.547819853E-1,-1.926169693E-1
4.432833655E1,-4.069092870E-1,2.405857593E-1,-1.895064265E-1
4.437811811E1,-5.403229594E-1,3.025841415E-1,-2.625834644E-1
4.442787890E1,-5.242161751E-1,2.664929628E-1,-1.800042242E-1
4.447767650E1,-3.258641064E-1,2.019806206E-1,4.514071625E-4
4.452744228E1,-2.371276170E-2,-2.202299424E-2,3.387790918E-1
4.457721572E1,2.497617006E-1,-2.068249285E-1,4.254490137E-1
4.462700348E1,4.567637742E-1,-2.776010036E-1,3.234393299E-1
4.467676952E1,6.000630260E-1,-2.258292139E-1,2.293552458E-1
4.472657223E1,7.398682237E-1,-1.048578918E-1,1.836767495E-1
4.477630478E1,7.377803326E-1,-7.322354708E-3,2.429053783E-1
4.482608462E1,5.654206276E-1,1.619267166E-1,-2.106691524E-2
4.487589681E1,3.643840849E-1,2.069234252E-1,-1.666245162E-1
4.492565978E1,2.775011957E-1,1.357638240E-1,-2.323725969E-1
4.497543608E1,3.586743176E-1,4.270242155E-2,6.666819006E-2
4.502521140E1,4.037989080E-1,7.768567652E-2,1.771146953E-1
4.507498494E1,3.875641823E-1,1.373404413E-1,9.900958836E-2
4.512477843E1,3.441440165E-1,3.072886728E-2,2.367414907E-2
4.517453316E1,2.463102192E-1,-7.247387618E-2,6.398372352E-2
4.522433072E1,1.542714834E-1,-1.848804951E-1,-9.627453238E-2
4.527409483E1,1.567428857E-1,-3.041047752E-1,-3.819635883E-2
4.532384843E1,1.622396260E-1,-3.330798745E-1,9.214929491E-2
4.537365395E1,1.725087464E-1,-2.307721078E-1,-5.596495047E-2
4.542344905E1,2.202752233E-1,-1.624673605E-1,-2.284098119E-1
4.547321452E1,2.941192985E-1,-1.907181591E-1,-1.486428827E-1
4.552295598E1,3.231371045E-1,-1.653222740E-1,-9.221187793E-3
4.557276020E1,-1.648388803E-1,-6.680414677E-1,-1.912079811E0
4.562255197E1,-3.176403046E-1,-7.823655605E-1,-1.278802395E0
4.567231613E1,-3.524530828E-1,-8.707398176E-1,-8.992702365E-1
4.572208608E1,-4.912782311E-1,-8.395913839E-1,-3.934405148E-1
4.577186488E1,-3.141036034E-1,-3.055961430E-1,-6.367745996E-2
4.582165301E1,-4.190532863E-1,2.378587127E-1,3.939744830E-2
4.587142775E1,-7.285338640E-1,6.408692598E-1,-1.321099848E-1
4.592120374E1,-1.327808499E0,3.803057671E-1,-3.326778114E-1
4.597096926E1,-1.127837062E0,3.987135291E-1,-4.548422992E-1
4.602075140E1,-5.815272927E-1,2.747594416E-1,-3.874323368E-1
4.607053936E1,-4.343505502E-1,-1.420568973E-1,-3.016573191E-1
4.612029926E1,-2.153962664E-2,-2.118955553E-1,1.954798698E-1
4.617010249E1,1.644127816E-1,-1.034943536E-1,8.550910354E-1
4.621987290E1,1.443005800E-1,-1.588028520E-1,1.227720380E0
4.626964410E1,5.895382166E-1,-2.208012044E-1,1.523224354E0
4.631942473E1,1.318220854E0,-1.424404085E-1,1.607124567E0
4.636920155E1,1.840967178E0,-4.141078889E-2,1.274123192E0
4.641898030E1,2.166213274E0,-6.001429632E-3,1.029027343E0
4.646875895E1,2.275296688E0,1.274973899E-1,8.253064156E-1
4.651852733E1,2.232260227E0,3.560177684E-1,4.441550076E-1
4.656832035E1,2.087895393E0,3.267017007E-1,1.400435418E-1
4.661808702E1,1.750718117E0,2.947437465E-1,-5.988512188E-2
4.666786431E1,1.242715001E0,1.698096693E-1,-6.672132015E-1
4.671764942E1,7.085919976E-1,-1.169166639E-1,-9.255608320E-1
4.676740994E1,1.382498890E-1,-3.384062648E-1,-7.740379572E-1
4.681718817E1,-4.337966144E-1,-3.875787556E-1,-6.605235338E-1
4.686696733E1,-9.081371427E-1,-3.309920132E-1,-4.792580605E-1
4.691673806E1,-1.215060830E0,-2.370357811E-1,-5.617947578E-1
4.696652233E1,-1.270412087E0,-1.866701841E-1,-5.084462166E-1
4.701630488E1,-1.121488214E0,-2.055892199E-1,-2.661627531E-1
4.706607400E1,-7.668405771E-1,-3.161635399E-1,1.463499069E-1
4.711585504E1,-3.374116123E-1,-3.275832236E-1,4.046549797E-1
4.716562327E1,-2.848513983E-2,-2.629429996E-1,1.302857101E-1
4.721540952E1,1.383777410E-1,-1.696685553E-1,-1.747631580E-1
4.726519327E1,1.557414606E-2,-7.545661926E-2,-9.674325585E-2
4.731496499E1,-2.602865100E-1,1.023997962E-1,2.325936407E-1
4.736474035E1,-5.875780582E-1,-1.050709337E-1,3.265925050E-1
4.741451837E1,-8.625012040E-1,3.746133298E-2,9.449286014E-2
4.746430066E1,-9.336608648E-1,5.734167099E-1,5.976528302E-2
4.751407488E1,-9.081371427E-1,9.119575024E-1,3.615331650E-1
4.756385265E1,-8.908798695E-1,5.216448307E-1,5.301429629E-1
4.761362973E1,-5.793116093E-1,1.629493833E-1,4.530605674E-1
4.766340311E1,2.297027826E0,1.338037699E-1,-1.727458276E-2
4.771314499E1,3.994290590E0,2.318505943E-1,-1.418678164E-1
4.776296457E1,3.072369337E0,-5.670797080E-2,-1.135171391E-2
4.781273515E1,6.874572635E-1,-1.408638358E-1,2.674064636E-1
4.786250603E1,-7.732322812E-1,7.845266908E-2,3.015375435E-1
4.791229249E1,-8.665918708E-1,3.230545297E-2,5.120055750E-2
4.796207093E1,-7.717407942E-1,-6.880937517E-2,-1.239713952E-1
4.801184150E1,-9.590568542E-1,-1.180671826E-1,-2.007555962E-1
4.806160171E1,-1.072571397E0,-8.721711487E-2,-2.290489823E-1
4.811138488E1,-6.476163268E-1,-8.517181873E-2,-2.406390607E-1
4.816117145E1,1.600665003E-1,9.788309038E-2,-2.169475853E-1
4.821091504E1,2.778846920E-1,1.040363126E-2,-9.452751279E-2
4.826072171E1,-7.096786797E-2,-9.740104526E-2,7.823028602E-3
4.831050249E1,-1.322844177E-1,-9.045553207E-2,5.320325494E-2
4.836028811E1,-1.595764793E-2,1.317331381E-2,6.287584454E-2
4.841005910E1,-1.067607179E-1,-5.277050659E-3,9.261800349E-2
4.845983202E1,-2.189542800E-1,4.182489589E-3,3.223886713E-2
4.850963374E1,-8.051262796E-2,2.518948540E-2,-2.081125602E-2
4.855939014E1,2.792907953E-1,9.221588075E-2,-5.651889369E-2
4.860916994E1,1.663302332E-1,6.848180294E-2,-6.579334848E-3
4.865895046E1,7.015825808E-2,5.071320385E-2,9.868335910E-3
4.870872692E1,4.495410714E-3,3.861180693E-2,3.402851149E-2
4.875850244E1,-6.178526673E-4,8.024229854E-2,3.338935226E-2
4.880828619E1,2.294577658E-2,7.329678535E-2,4.749344289E-2
4.885804936E1,-2.652506344E-2,-4.467449151E-3,4.808998108E-2
4.890783410E1,3.628287464E-2,-3.126947954E-2,4.456796218E-3
4.895761285E1,2.895386331E-2,-5.447492003E-3,-2.571146935E-2
4.900738067E1,-7.791338116E-2,-3.220691532E-2,-2.829608973E-3
4.905715119E1,-1.492860615E-1,-1.422526501E-2,-1.039965427E-3
4.910694718E1,4.474094603E-4,2.182325535E-2,-9.476851672E-3
4.915672218E1,1.095730215E-1,1.913878880E-2,-1.838245429E-2
4.920650192E1,-3.436540067E-2,-1.111469418E-2,1.660080068E-2
4.925627994E1,1.595764793E-2,8.954873309E-3,-2.089647762E-2
4.930604181E1,-3.087133728E-2,-1.644101366E-2,-8.127562702E-2
4.935582395E1,-9.627852589E-2,-5.163731799E-2,-6.994121522E-2
4.940559473E1,7.880819589E-2,4.500339180E-2,-4.832301755E-3
4.945537749E1,2.780338377E-2,1.031840965E-2,8.814390004E-2
4.950516067E1,-2.648244798E-2,2.024666406E-2,6.398372352E-2
4.955492660E1,4.288751259E-2,5.290363915E-3,6.715155672E-3
4.960471244E1,-3.440801799E-2,-5.106607452E-3,-4.053993896E-2
4.965447577E1,2.017609216E-2,-2.146905847E-2,-3.943206742E-2
4.970426728E1,4.836297128E-3,-1.499225385E-2,-2.190448344E-3
4.975404796E1,2.407495631E-3,1.232110523E-2,3.786345944E-2
4.980380520E1,-3.402451798E-2,6.458158605E-4,1.729720971E-3
4.985358103E1,1.140045002E-1,9.187846445E-5,-6.832201034E-2
4.990337994E1,1.294295192E-1,-4.916591197E-2,-7.002643496E-2
4.995312077E1,2.751576304E-1,-4.784498364E-2,-2.076864243E-2
5.000291014E1,1.431075186E-1,-7.109301630E-3,4.838826507E-2
5.005268499E1,-1.577229351E-1,-3.231744282E-3,7.037529349E-2
5.010250712E1,-3.403090537E-1,-2.705103718E-2,5.605816841E-2
5.015226171E1,-4.863354564E-1,-9.143555909E-2,2.064880170E-2
5.020203952E1,-2.148636729E-1,-1.959419437E-2,-3.674759716E-2
5.025182155E1,-2.124135382E-2,-1.443831623E-2,-3.887812793E-2
5.030159181E1,4.369710758E-2,-6.731799990E-2,-1.889378019E-2
5.035137322E1,9.500022233E-2,-7.464700937E-2,-1.740241237E-2
5.040114275E1,5.584111065E-2,-2.756236494E-2,-3.127880394E-3
5.045092780E1,5.049349274E-3,2.859833091E-2,-4.235752858E-3
5.050070129E1,6.114612799E-3,5.740306154E-2,1.229713392E-2
5.055047952E1,1.612808928E-2,1.794569194E-2,1.958354004E-2
5.060024879E1,-2.256228589E-2,-1.356880413E-3,3.632947803E-2
5.065003249E1,-9.355144203E-2,-7.771497220E-2,5.588772893E-2
5.069980093E1,-5.034435913E-2,-5.244692788E-2,-5.302482471E-2
5.074958462E1,2.790989820E-3,-1.759149879E-2,-4.812461510E-2
5.079936181E1,3.909517080E-2,2.186586708E-2,-3.474490345E-2
5.084914416E1,8.372970857E-3,3.912313655E-2,1.510943193E-2
5.089892540E1,7.403580844E-2,6.647911668E-2,4.456794355E-3
5.094869816E1,-3.828557208E-2,2.527470887E-2,5.269192532E-2
5.099846697E1,-3.981954232E-2,-9.239831008E-3,1.118926052E-2
5.104826218E1,1.484977454E-2,1.031840779E-2,-2.541319467E-2
5.109803134E1,-5.814208835E-2,3.575690463E-2,1.531312009E-4
5.114780535E1,-9.849426150E-2,3.601256758E-2,4.088881239E-2
5.119758140E1,-1.314748526E-1,1.521862112E-2,3.475289047E-2
5.124735816E1,-5.822730437E-2,-5.958818365E-3,-1.467533782E-2
5.129713223E1,4.927909374E-2,-2.960767038E-2,-1.297091600E-2
5.134689113E1,2.976346575E-2,-5.044422299E-2,-5.471460521E-3
5.139666369E1,-8.839557320E-2,-2.134122327E-2,3.561974503E-3
5.144646749E1,-9.576719254E-2,-9.452881292E-3,5.095954053E-3
5.149623608E1,-1.039484218E-1,2.051963471E-3,7.013428025E-3
5.154598926E1,-5.494628847E-2,-3.359575290E-3,6.644572131E-4
5.159578145E1,-1.288969070E-2,-2.278998308E-2,3.283541650E-2
5.164557530E1,-2.882603370E-2,-1.064597815E-2,1.059271395E-2
5.169535140E1,-8.298403025E-2,-2.470745891E-2,4.007920995E-2
5.174512462E1,-9.696027637E-2,-4.194478970E-4,2.418547869E-2
5.179490593E1,-6.167875975E-2,-5.227648094E-2,8.107054979E-2
5.184468259E1,-1.196291000E-1,-5.909416825E-2,4.710995033E-2
5.189443145E1,-1.550810933E-1,-4.954940453E-2,3.453984112E-2
5.194425556E1,-1.979472935E-1,-5.572793260E-2,4.595946893E-2
5.199400869E1,-2.053615004E-1,-1.750800759E-1,4.348804802E-2
5.204379343E1,-1.429370791E-1,-1.711172760E-1,9.359804541E-2
5.209355968E1,-3.364102542E-2,-1.332791448E-1,-1.156476885E-2
5.214333556E1,6.372407079E-2,-3.451387286E-1,-5.144823715E-2
5.219312358E1,1.575950682E-1,-7.930607200E-1,4.382321239E-1
5.224291603E1,2.625449002E-1,-7.326390743E-1,7.010965943E-1
5.229268462E1,3.092460036E-1,-2.735104263E-1,1.163095087E-1
5.234245311E1,3.535184264E-1,-1.302537769E-1,-3.460149169E-1
5.239224843E1,4.493067563E-1,4.261547029E-1,1.272177696E-1
5.244200926E1,4.548462331E-1,7.395978570E-1,1.639480591E-1
5.249177343E1,4.411256909E-1,5.469981432E-1,-6.724542975E-1
5.254156155E1,4.433839917E-1,8.567768335E-1,-8.028425574E-1
5.259133790E1,4.310269952E-1,6.134706736E-1,-3.351066411E-1
5.264111770E1,3.377524912E-1,3.943672478E-1,1.267490536E-1
5.269089186E1,1.902773827E-1,6.562689692E-2,-6.193042174E-2
5.274066306E1,-8.309064433E-4,-3.979758024E-1,-1.158555508E0
5.279042988E1,-2.337401509E-1,-5.057805777E-1,-1.257070899E0
5.284022796E1,-4.276180565E-1,-5.788384005E-3,-3.665531874E-1
5.288999910E1,-5.180376172E-1,-5.745538473E-1,-5.556684453E-3
5.293978192E1,-6.887354851E-1,-1.725234240E-1,6.109326482E-1
5.298955629E1,-8.855535984E-1,1.834450811E-1,1.116591811E0
5.303933728E1,-9.085206389E-1,-4.269509912E-1,3.905656934E-2
5.308909108E1,-9.057084322E-1,-2.736808062E-1,-2.108968645E-1
5.313888181E1,-9.058361650E-1,-1.735887080E-1,4.597930610E-1
5.318866733E1,-8.686798215E-1,-3.432638347E-1,7.310943007E-1
5.323844514E1,-8.464371562E-1,3.118732274E-1,1.236810908E-1
5.328821681E1,-6.862640977E-1,-1.215186045E-1,-3.425634503E-1
5.333799556E1,-5.246422291E-1,1.014796458E-2,-1.088020205E-1
5.338777171E1,-3.128252625E-1,1.125837117E-1,4.130066335E-1
5.343755692E1,-4.459193721E-2,-4.588490725E-2,3.739328384E-1
5.348731640E1,2.108582556E-1,4.082755372E-2,-7.722761482E-2
5.353710363E1,3.898651600E-1,1.134785265E-1,-2.657792568E-1
5.358686962E1,3.690286279E-1,2.566925883E-1,2.992791831E-1
5.363665608E1,3.294008076E-1,1.464164853E-1,6.177928448E-1
5.368643442E1,2.792908549E-1,2.417788655E-1,2.247107029E-1
5.373620551E1,2.120087296E-1,6.669215858E-2,1.556816101E-1
5.378599072E1,1.279381514E-1,-3.867692649E-1,4.566398561E-1
5.383576166E1,3.472757759E-3,-4.347061217E-1,2.359172702E-1
5.388555150E1,-1.534192562E-1,6.706965566E-1,-7.675184608E-1
5.393532035E1,-2.041258067E-1,1.642276496E-1,-8.021182418E-1
5.398507728E1,-3.221143782E-1,-1.527324552E-3,5.039097369E-2
5.403486478E1,-4.129174650E-1,-1.823066175E-2,3.930649757E-1
5.408461613E1,-4.813927412E-1,2.366656214E-1,7.621293515E-2
5.413442764E1,-5.048285127E-1,-4.611245692E-1,-4.590606689E-1
5.418421296E1,-5.810586810E-1,-1.483206451E-1,-6.456522942E-1
5.423398004E1,-6.525591016E-1,1.690852791E-1,-6.248157620E-1
5.428376827E1,-6.713077426E-1,-7.882282883E-2,-6.769711375E-1
5.433353249E1,-6.473181248E-1,1.996370256E-1,-7.873749733E-1
5.438331171E1,-5.559610724E-1,1.508053541E-1,-7.539683580E-1
5.443309129E1,-4.631979167E-1,1.834450513E-1,-3.725186884E-1
5.448287462E1,-3.418857157E-1,-1.207942292E-1,-2.967425063E-2
5.453265108E1,-2.284138203E-1,1.934585124E-1,2.399653196E-1
5.458242566E1,-5.976128578E-2,7.308373600E-2,1.818871200E-1
5.463220113E1,1.375255287E-1,-4.561817944E-1,1.116223112E-1
5.468197785E1,2.801856399E-1,-2.883388698E-1,4.613696337E-1
5.473176046E1,4.157297611E-1,-4.073074162E-1,1.059834838E0
5.478150337E1,5.227674246E-1,-2.594915926E-1,1.273995399E0
5.483130884E1,6.348757744E-1,-3.349974453E-1,1.055403352E0
5.488110041E1,7.184777260E-1,-5.973332003E-2,6.147676110E-1
5.493087426E1,7.965400815E-1,-1.430795491E-1,3.253142238E-1
5.498064499E1,8.896442652E-1,-1.989420056E-1,1.393191516E-1
5.503043827E1,9.882024527E-1,-1.125277802E-1,3.106561601E-1
5.508019431E1,9.449527264E-1,-1.517721117E-1,-9.567798674E-2
5.512998343E1,7.643266320E-1,-2.225056142E-1,-7.644078732E-1
5.517973926E1,9.290164113E-1,2.962351739E-1,-5.550622344E-1
5.522953546E1,1.026679635E0,1.774795800E-1,-2.220182121E-1
5.527930613E1,1.092512965E0,4.754125774E-1,-2.271741033E-1
5.532908494E1,1.188173771E0,4.878123105E-1,-6.698976755E-1
5.537885791E1,1.335265279E0,4.937350452E-1,-1.056801200E0
5.542863775E1,1.513633013E0,1.524245590E-1,-1.013722181E0
5.547841056E1,1.743857265E0,-1.907607317E-1,-9.343811870E-1
5.552819697E1,1.919881940E0,-3.842552602E-1,-7.996467352E-1
5.557797192E1,1.969140053E0,2.386856265E-2,-6.874810159E-2
5.562774317E1,2.000884533E0,-1.367731988E-1,4.879586697E-1
5.567749233E1,1.955546856E0,1.945664138E-1,6.947901845E-1
5.572730046E1,1.911700606E0,1.038911492E-1,6.267838478E-1
5.577704895E1,1.810841680E0,7.168012261E-1,5.911186337E-1
5.582685738E1,1.675595522E0,6.234413981E-1,7.325004339E-1
5.587663238E1,2.882389426E-1,2.290809304E-1,1.418061376E0
5.592636978E1,1.868259162E-1,8.061555028E-1,1.606272340E0
5.597618718E1,1.339568973E0,4.208282530E-1,1.299348474E0
5.602595994E1,1.637544274E0,9.849689901E-3,-2.832495868E-1
5.607574561E1,1.048709393E0,2.261408120E-1,-8.901942372E-1
5.612551707E1,4.623456895E-1,1.380221993E-1,-9.548769593E-1
5.617529416E1,2.760524154E-1,-2.063952852E-4,-8.714455366E-1
5.622508744E1,8.639287204E-2,-5.040161312E-2,-5.742797852E-1
5.627485863E1,-3.072859049E-1,-1.251405030E-1,-5.678028464E-1
5.632462390E1,-6.516216993E-1,-4.292093515E-1,-5.702316165E-1
5.637439343E1,1.356080621E-1,-5.339887142E-1,-7.947040796E-1
5.642418442E1,8.366793990E-1,-4.336407781E-1,-1.143840179E-1
5.647395056E1,1.157067895E0,-3.966549337E-1,6.558015347E-1
5.652373171E1,9.383906722E-1,-3.203393817E-1,1.233685851E0
5.657348280E1,7.140888572E-1,-6.788644791E-1,3.517753184E-1
5.662329223E1,2.454154193E-1,-4.094806612E-1,-4.216912091E-1
5.667306874E1,1.344362646E-2,-3.867265582E-1,-1.479185075E-1
5.672283561E1,-1.066328734E-1,-3.827638626E-1,4.392121434E-1
5.677261770E1,-2.722600400E-1,1.087234728E-2,7.717022896E-1
5.682240223E1,-4.150053859E-1,-1.084371656E-1,5.336371064E-1
5.687217816E1,-5.855329037E-1,6.259129643E-1,6.487853080E-2
5.692190504E1,-4.565081000E-1,2.918462753E-1,9.879653901E-2
5.697172030E1,-3.117600381E-1,-5.703154020E-3,-4.160520062E-2
5.702150374E1,-2.052912235E0,-5.191798788E-3,-8.903073519E-2
5.707128140E1,-4.747475147E0,6.854397655E-1,-5.986528397E-1
5.712106093E1,-6.594983101E0,7.561734319E-1,-7.534996271E-1
5.717083921E1,-6.706195831E0,3.169865012E-1,-4.860331416E-1
5.722058650E1,-6.038744450E0,-1.946634986E-2,-3.724426031E-3
5.727038285E1,-5.532830238E0,-7.611029148E-1,7.022895813E-1
5.732016551E1,-4.933086872E0,-2.089128196E-1,8.043419123E-1
5.736995249E1,-4.129111290E0,-9.181905538E-2,4.873195291E-1
5.741969921E1,-2.303845406E0,-6.054292247E-2,1.970564425E-1
5.746944640E1,-4.928121567E-1,-4.052196145E-1,-5.730013251E-1
5.751925921E1,5.877485871E-1,-2.728286386E-1,-1.031362891E0
5.756906171E1,8.659528494E-1,-1.385202110E-1,-8.870409131E-1
5.761882395E1,4.020091593E-1,-9.045299292E-1,-3.786545694E-1
5.766861035E1,-1.157515347E-1,-3.137347400E-1,3.851393759E-1
5.771838660E1,-3.452945352E-1,1.235772297E-1,6.738684177E-1
5.776816405E1,-7.676289231E-2,4.014405906E-1,4.426635802E-1
5.781793764E1,-2.234923095E-2,-1.767844856E-1,-4.211799204E-1
5.786771546E1,-3.295712471E-1,-7.386472225E-1,-8.229825646E-2
5.791749056E1,-8.838918805E-1,-8.652004004E-1,5.613339543E-1
5.796725061E1,-2.061135769E0,-1.517610550E0,5.711343288E-1
5.801703004E1,-2.127778769E0,-1.960632443E0,2.836836874E-1
5.806682509E1,-1.486532927E0,-1.848523617E0,1.616470963E-1
5.811660514E1,-1.348474503E0,-1.746386647E0,1.660785824E-1
5.816638515E1,-9.680051208E-1,-1.300722837E0,3.891447783E-1
5.821615129E1,-3.162341416E-1,-7.781472802E-1,3.243767917E-1
5.826593327E1,-5.575590208E-2,-5.777071118E-1,2.843228281E-1
5.831572108E1,-8.767119795E-2,-5.052691698E-1,4.448367655E-1
5.836550103E1,-2.192525417E-1,-2.686528265E-1,6.775329709E-1
5.841526421E1,-6.248835474E-2,1.553220600E-1,5.079003572E-1
5.846503228E1,9.443560839E-1,5.667694807E-1,-2.011816651E-1
5.851481947E1,1.660426259E0,1.069744349E0,-7.418668270E-1
5.856459968E1,1.835768461E0,1.100977898E0,-7.112724781E-1
5.861437353E1,2.855971754E-1,5.273120999E-1,-3.973180354E-1
5.866415452E1,-8.789489865E-1,-4.569487572E-1,-7.420224696E-2
5.871393009E1,-8.552573919E-1,-1.186398864E0,4.698917270E-1
5.876370192E1,-1.109727740E0,-1.289217949E0,6.780016422E-1
5.881349082E1,-1.955887675E0,-7.780192494E-1,2.774199545E-1
5.886325702E1,-2.767341137E-1,-3.941408396E-1,-2.784200199E-2
5.891304306E1,-1.777498871E-1,2.003187984E-1,6.325934082E-2
5.896281655E1,-4.530140162E-1,-8.858066797E-2,8.703601360E-2
5.901258957E1,-3.620830774E-1,-9.005244970E-1,-6.014078483E-2
5.906236801E1,3.338535503E-2,-1.386795998E0,-5.003077388E-1
5.911214785E1,-8.336966038E-1,-1.294586897E0,-1.016491771E0
5.916193926E1,-9.338312745E-1,-1.045442820E0,-1.578823328E0
5.921169749E1,7.152180374E-2,-6.993601918E-1,-1.076444864E0
5.926146343E1,5.019734502E-1,-1.905903071E-1,-1.070549935E-1
5.931126103E1,1.356527925E0,-1.466162652E-1,3.979651630E-1
5.936103093E1,8.208708167E-1,1.937141716E-1,5.506386757E-1
5.941081848E1,-1.337758005E-1,2.085426450E-1,1.828245223E-1
5.946058890E1,1.983308345E-1,-3.060648739E-1,-2.679523528E-1
5.951037150E1,-3.230517805E-1,-4.955113530E-1,-2.589616179E-1
5.956014801E1,-1.998647600E-1,-7.276110649E-1,-1.438278854E-1
5.960989431E1,-8.967388421E-2,-4.024499059E-1,1.846567839E-1
5.965970145E1,-2.213404477E-1,-1.384350061E-1,4.012182355E-2
5.970948160E1,-3.325752541E-2,-2.031604350E-1,-1.765101701E-1
5.975926462E1,-4.228883386E-1,-3.066187799E-1,-9.547414957E-4
5.980902775E1,-4.493495226E-1,-5.891267061E-1,-5.132040381E-2
5.985881030E1,-7.859515399E-2,-7.787010670E-1,-7.305179536E-2
5.990858666E1,8.047001064E-2,-8.674841374E-2,-1.325360984E-1
5.995835275E1,4.582550824E-1,1.137341931E-1,5.905555096E-3
6.000814119E1,4.003047347E-1,9.907617420E-2,1.169060022E-1
6.005792082E1,2.900712788E-1,1.116888896E-1,8.217842877E-2
6.010769566E1,7.440013289E-1,-1.713729352E-1,1.253429055E-1
6.015747728E1,9.259911180E-1,-3.834882379E-1,-5.920335278E-2
6.020723770E1,-3.262902498E-1,2.722028196E-1,2.624210715E-1
6.025703640E1,-2.730270326E-1,5.148272514E-1,3.537354171E-1
6.030680619E1,3.545410931E-1,-1.043891758E-1,2.514701188E-1
6.035658202E1,1.046301946E-1,-9.307754226E-4,-1.302351207E-1
6.040635822E1,-8.841685951E-3,1.854477376E-1,-8.540884405E-2
6.045613426E1,-1.797099710E-1,1.093026996E-1,-7.965641469E-2
6.050591254E1,-2.023999579E-3,-2.490042243E-4,-1.356746256E-2
6.055567962E1,2.492718166E-3,6.230327487E-2,9.261800349E-2
6.060546853E1,4.088480771E-2,1.856608242E-1,1.071908250E-1
6.065524462E1,1.529931575E-1,-1.559479237E-1,1.157129034E-1
6.070502119E1,1.548253894E-1,-1.325121522E-1,4.715256020E-2
6.075480087E1,1.898938864E-1,-4.788758606E-2,-1.009190753E-1
6.080456270E1,-7.731682807E-2,5.179822911E-4,-2.065506279E-1
6.085435598E1,-4.169440642E-2,1.605205685E-1,-8.570711315E-2
6.090412947E1,-1.163906977E-1,2.363673449E-1,-1.977396198E-3
6.095390530E1,-7.757250965E-2,9.289764613E-2,7.101445645E-2
6.100368895E1,-2.367015183E-2,-1.679641008E-1,2.446950227E-1
6.105345593E1,1.139618978E-1,-4.145938754E-1,9.623989463E-2
6.110324311E1,2.961432328E-3,2.318679169E-2,1.289368235E-2
6.115301186E1,-9.500022233E-2,-6.923546642E-2,1.863612235E-1
6.120277436E1,-9.640636295E-2,-3.054510430E-2,3.628687561E-2
6.125256150E1,1.297277957E-1,-2.195654809E-1,3.458244726E-2
6.130234921E1,6.602501869E-2,-3.089623451E-1,3.858784214E-2
6.135213483E1,8.916256577E-2,-9.706015885E-2,6.415417045E-2
6.140190754E1,-1.013065726E-1,-9.565401077E-2,-1.863811910E-2
6.145168108E1,-4.352666810E-2,-1.096302718E-1,4.404199496E-2
6.150146879E1,-5.452018604E-2,-1.032386795E-1,2.580468170E-2
6.155123629E1,1.871668547E-1,-4.292518795E-1,9.053009748E-2
6.160100280E1,4.399538040E-2,-3.724520802E-1,1.261525005E-1
6.165076483E1,1.908313036E-1,-4.555852711E-1,1.482673734E-1
6.170056660E1,4.118947983E-1,-5.257222056E-1,1.279847920E-1
6.175034249E1,1.065050513E-1,-2.425751537E-1,7.226490881E-3
6.180010738E1,2.650162876E-1,-6.408132911E-1,-4.353691638E-1
6.184990181E1,2.235988528E-1,-4.641074836E-1,-4.092915356E-1
6.189967379E1,-4.692486227E-1,-2.654143870E-1,-4.319603741E-1
6.194945254E1,-1.829483807E-1,-1.049004942E-1,-2.238930911E-1
6.199921811E1,7.180516124E-1,-7.891830802E-1,2.513848841E-1
6.204900572E1,-7.130871713E-2,1.427945793E-1,4.485438764E-1
6.209877863E1,-3.409056067E-1,4.123488963E-1,2.764398754E-1
6.214853077E1,1.079538167E-1,-3.296284676E-1,-1.219260842E-1
6.219833848E1,4.868254811E-2,-4.315782711E-2,-3.500057384E-2
6.224810608E1,-1.339462548E-1,3.933019340E-1,1.245333031E-1
6.229789416E1,1.301965117E-1,5.025553703E-1,8.967788517E-2
6.234767150E1,1.157089323E-1,2.061564475E-1,4.071836919E-2
6.239739113E1,-1.621331647E-2,2.745037973E-1,-8.715587109E-2
6.244723712E1,1.550384611E-1,4.524027705E-1,1.289368421E-2
6.249700363E1,1.906823367E-2,2.552438378E-1,3.262236342E-2
6.254677593E1,-2.705556750E-1,2.585248351E-1,-4.245742038E-2
6.259654916E1,1.932601035E-1,-6.761626899E-2,1.340501290E-2
6.264633192E1,-6.455471274E-3,-7.451917976E-2,-2.387921326E-2
6.269610186E1,-5.094090104E-2,-1.570984274E-1,1.336239930E-2
6.274588150E1,1.195225120E-2,1.023318805E-2,6.629935466E-3
6.279567884E1,-1.927914321E-1,-1.311738975E-2,-1.187302843E-1
6.284544067E1,-1.053545699E-1,-1.813012213E-1,-3.325353935E-2
6.289522390E1,4.783034697E-2,9.255675226E-2,2.005225793E-2
6.294497119E1,-2.848301232E-1,4.875311628E-2,-7.005441003E-3
6.299477405E1,-1.765993983E-1,5.122452602E-2,-1.808417961E-2
6.304454676E1,-6.370275747E-3,5.182108283E-2,-1.250220090E-2
6.309432462E1,-6.351102144E-2,1.406813599E-2,2.709763823E-3
6.314409676E1,7.906386256E-2,7.764305919E-2,2.005225234E-2
6.319387843E1,-7.094656583E-3,3.959184512E-2,6.672544405E-3
6.324364983E1,-1.327318698E-2,5.493165180E-2,7.311702240E-3
6.329343473E1,-7.893602550E-2,1.210632250E-1,1.559278928E-3
6.334319754E1,8.166310191E-2,8.784428239E-3,-7.900262251E-3
6.339299228E1,1.314535551E-2,7.335672621E-3,-1.395095885E-2
6.344275603E1,9.821729735E-3,-5.167993531E-2,1.429983135E-2
6.349254082E1,-1.159219816E-1,-3.565837070E-2,-2.531332429E-3
6.354231634E1,-5.720464140E-2,-1.040056795E-1,2.880206332E-3
6.359208895E1,5.072784796E-2,-3.444995880E-1,4.429765046E-2
6.364187853E1,2.157159001E-1,-4.290389121E-1,4.442548752E-2
6.369165676E1,9.900559485E-2,-3.433490694E-1,-2.064081654E-2
6.374143046E1,-9.857949615E-2,-2.697180510E-1,-5.511274189E-2
6.379121134E1,-2.961645722E-1,-6.966158003E-2,-7.202912867E-2
6.384099343E1,-2.614369690E-1,-8.321172744E-2,-4.816722497E-2
6.389077254E1,-7.139395922E-2,-2.766210437E-1,-4.791156948E-2
6.394053973E1,-1.784742773E-1,-1.928912699E-1,-9.256742150E-2
6.399029249E1,-2.324192077E-1,-1.361766458E-1,-8.084952086E-2
6.404007827E1,-6.457627565E-2,-2.107450813E-1,-9.682848305E-2
6.408986884E1,2.963563055E-2,-2.831829786E-1,3.765041009E-2
6.413963968E1,6.402233988E-2,-1.666431874E-1,4.246539995E-2
6.418941051E1,1.301538795E-1,1.081096083E-1,1.029444113E-2
6.423920082E1,5.524456501E-2,7.930487394E-2,-2.191912942E-2
6.428897093E1,8.042740077E-2,1.688043214E-2,-4.434174625E-4
6.433875322E1,1.808178574E-1,-1.158341020E-2,3.334674612E-2
6.438853431E1,-1.562315673E-1,9.059666842E-2,-1.194826420E-2
6.443829785E1,-4.452803172E-3,1.035928875E-1,3.338935971E-2
6.448808608E1,6.583326496E-3,9.515599906E-2,-1.199087128E-2
6.453784426E1,2.490586042E-2,4.432162270E-2,-8.795083500E-3
6.458763754E1,-1.050136834E-1,1.428797990E-1,-1.906422339E-2
6.463741983E1,5.518065300E-3,8.953141421E-2,-1.906422898E-2
6.468718921E1,-1.063133217E-2,2.165281214E-2,2.218278125E-2
6.473696827E1,3.960650042E-2,5.605961196E-4,1.242496818E-2
6.478675306E1,-9.069655091E-2,1.845702156E-2,3.348921891E-3
6.483651692E1,4.258924350E-2,7.806917280E-2,2.550640516E-2
6.488630858E1,-9.438225999E-3,9.000012279E-2,-1.096822135E-2
6.493608598E1,-8.756466210E-3,1.344883349E-4,1.114664972E-2
6.498585921E1,1.906821504E-2,4.389552027E-2,5.692502018E-3
6.503562681E1,-1.638375409E-2,1.926662400E-2,4.328964278E-3
6.508540848E1,-9.587374516E-4,2.271807566E-2,2.880205866E-3
6.513519712E1,5.771599337E-2,6.055624038E-2,-9.008135647E-3
6.518494285E1,1.680985838E-2,6.057355087E-3,-7.772430778E-3
6.523474890E1,-2.371276543E-2,-2.977811173E-2,-2.233059146E-3
6.528451973E1,-4.324972630E-3,1.398291439E-2,2.539322246E-3
6.533429994E1,5.094090849E-2,1.901095919E-2,-2.957438119E-3
6.538407462E1,-7.591068000E-2,3.273155540E-2,-4.704470746E-3
6.543380384E1,-7.254444808E-2,2.514687926E-2,5.692501552E-3
6.548363640E1,1.454510838E-1,-1.763410680E-2,3.722430766E-2
6.553340041E1,4.599808156E-2,-6.574141234E-2,4.030691460E-3
6.558317916E1,-2.167385370E-1,6.132323295E-2,-1.923466474E-2
6.563295952E1,-1.535470933E-1,1.465016901E-1,1.281125993E-1
6.568273306E1,1.575524509E-1,-1.486441679E-2,-9.836243838E-2
6.573251905E1,-1.062920019E-1,1.019737050E-1,1.020921767E-2
6.578229478E1,1.910443753E-1,1.682756543E-1,1.319195237E-2
6.583206754E1,1.425322518E-2,7.099582255E-2,-4.458793625E-2
6.588185905E1,1.129176700E-3,5.544297397E-2,3.615904227E-2
6.593165640E1,-1.246571317E-1,3.039050400E-1,-3.223088011E-2
6.598141108E1,5.161628127E-1,5.200257897E-1,2.542117983E-2
6.603119369E1,4.867189229E-1,-2.941765487E-1,2.430758625E-1
6.608095113E1,4.825643450E-2,-1.847100407E-1,2.733866125E-2
6.613073358E1,-7.991606742E-2,3.799223304E-1,-2.698978223E-2
6.618051020E1,5.230445042E-2,2.218371332E-1,7.761909068E-2
6.623029066E1,-3.660884798E-1,2.715636790E-1,1.917727590E-1
6.628006686E1,4.233358055E-2,-2.701015770E-1,-3.031340614E-2
6.632983166E1,-4.275967181E-2,7.542732358E-2,-2.306961268E-2
6.637961530E1,4.096365571E-1,4.100053608E-1,2.691255137E-2
6.642939848E1,1.246145219E-1,3.948786855E-1,1.574712396E-1
6.647916942E1,5.767335743E-2,1.519984752E-1,-3.042659722E-3
6.652894442E1,7.164962590E-2,2.042389661E-1,-4.484360293E-2
6.657873051E1,6.423539668E-2,-1.320434213E-1,1.515204273E-2
6.662850629E1,-6.576937437E-2,-2.520346940E-1,-2.647845820E-2
6.667828311E1,-6.214746833E-2,-1.520530321E-2,-6.904639304E-2
6.672806603E1,1.222283393E-1,8.032754809E-2,-1.254481170E-2
6.677784384E1,1.760880649E-1,-1.038778424E-1,2.081924304E-2
6.682762103E1,7.237400860E-2,-1.190045848E-1,8.158187568E-2
6.687737702E1,-1.449823678E-1,-1.515164524E-1,-5.937379971E-2
6.692714103E1,-1.444710493E-1,-4.723737240E-1,-8.285220712E-2
6.697695134E1,1.522261649E-1,-1.772106141E-1,-2.082976401E-1
6.702672712E1,5.047217757E-2,-2.098928988E-1,-2.115214057E-2
6.707650504E1,-3.368363529E-2,-4.916590825E-2,-3.001513332E-2
6.712628488E1,-6.990259886E-2,-8.466048539E-2,-1.020123251E-2
6.717605499E1,-3.227748349E-2,-1.962575167E-1,1.431447454E-3
6.722583238E1,-2.617778778E-1,-1.398837417E-1,-9.094821662E-2
6.727560702E1,-1.093599498E-1,-2.187984735E-1,-9.039428085E-2
6.732538702E1,-1.760454625E-1,2.240528762E-1,-9.111866355E-2
6.737516337E1,1.122787036E-2,-1.146583110E-1,-4.573842511E-2
6.742492640E1,1.810962684E-3,-1.971523166E-1,-2.767155506E-2
6.747472738E1,-2.988490462E-1,2.163403928E-1,-3.828158230E-2
6.752449494E1,-3.969171643E-2,-1.245013550E-1,-8.114778996E-2
6.757427650E1,-1.198847741E-1,5.332977045E-3,1.613208279E-2
6.762405369E1,-1.479651183E-1,-2.017542720E-1,-1.906422153E-2
6.767383077E1,1.642423421E-1,-3.203647956E-2,2.712560445E-2
6.772359790E1,-1.434484124E-1,2.194509953E-1,1.142215431E-1
6.777335499E1,-1.486468911E-1,-4.886763170E-2,-2.392182685E-2
6.782315488E1,-1.454937011E-1,1.902201027E-1,-1.071255654E-2
6.787293837E1,3.879690170E-2,-1.354522854E-1,8.831433952E-2
6.792272192E1,1.800296083E-2,-1.702224463E-1,2.154215872E-1
6.797247853E1,3.180877119E-2,-2.500573173E-2,2.861696482E-2
6.802225072E1,5.618199706E-2,-1.648535430E-1,1.636071652E-1
6.807202738E1,1.247423664E-1,8.970185369E-2,9.351282567E-2
6.812183113E1,5.336970836E-2,5.625257641E-2,1.153014787E-2
6.817160775E1,2.251967229E-2,-6.143774092E-2,5.848696083E-2
6.822137957E1,-7.373753935E-2,-2.379534533E-3,-1.433445327E-2
6.827114770E1,-1.213761270E-1,-6.257091183E-3,-3.981555626E-2
6.832094530E1,-4.229094833E-2,7.538471371E-2,4.318977892E-2
6.837070806E1,5.196355656E-2,1.444990039E-1,1.924265549E-2
6.842048551E1,-3.547327965E-2,5.787177756E-2,-1.017712951E-1
6.847026707E1,-7.574024051E-2,1.042746529E-1,3.235699842E-4
6.852004462E1,3.619765863E-2,-3.207908198E-2,-4.901943728E-2
6.856982744E1,1.540372521E-2,-3.058771230E-2,-9.866071492E-2
6.861959603E1,-1.260206848E-1,-1.144452468E-1,4.105925187E-2
6.866937582E1,2.124135196E-2,-1.833891124E-1,5.716603622E-2
6.871912681E1,-6.679200381E-2,-1.401220635E-2,7.152578235E-2
6.876891447E1,-2.234922536E-2,6.511557102E-2,-4.224436358E-2
6.881870926E1,-1.433205754E-1,-1.132521629E-1,-4.944553971E-2
6.886849468E1,-8.202530444E-3,-1.740147918E-1,7.207972556E-2
6.891823853E1,-3.875428066E-2,-1.242882758E-1,7.335803658E-2
6.896802478E1,1.981389709E-3,-2.043960840E-1,-6.725674868E-2
6.901781613E1,2.299051583E-1,7.500121742E-2,-1.546083540E-1
6.906757801E1,-2.661028132E-2,3.121715188E-1,-1.606590748E-1
6.911734306E1,-3.309773803E-1,3.289174736E-1,-1.094412059E-1
6.916713843E1,-1.627509743E-1,1.227849163E-2,9.570059367E-3
6.921691733E1,-3.922300041E-2,-2.606420517E-1,9.385370463E-2
6.926670421E1,1.268302798E-1,-3.522121310E-1,6.556031108E-2
6.931648025E1,3.900356293E-1,-2.879553735E-1,1.425722428E-2
6.936624926E1,2.627153099E-1,-2.918156236E-2,-1.501622051E-2
6.941603275E1,-1.860589534E-1,2.387535423E-1,-1.497361250E-2
6.946581520E1,-3.719687462E-1,2.177039087E-1,-1.539971679E-2
6.951559410E1,-2.580281496E-1,-6.305693835E-2,4.510725662E-2
6.956534816E1,8.799080737E-3,-4.848413914E-2,3.326152638E-2
6.961513223E1,3.078611381E-2,-4.077163339E-2,2.738126740E-2
6.966490348E1,-1.702291518E-2,-6.139512733E-2,6.075995043E-3
6.971469916E1,-4.314317554E-2,-1.684754491E-1,3.453984112E-2
6.976446754E1,2.331009805E-1,-2.077197284E-1,4.093142599E-2
6.981424233E1,9.572458267E-2,1.407066584E-1,-2.311222628E-2
6.986403890E1,-3.866906837E-2,6.213282794E-2,-1.194826420E-2
6.991381197E1,-1.432353407E-1,8.002924919E-2,-4.832303151E-3
6.996358525E1,-8.583893627E-2,8.978707343E-2,4.161319137E-2
7.001336676E1,7.164962590E-2,3.191596270E-1,-2.609496191E-2
7.006314718E1,1.659467369E-1,2.983404882E-2,2.593250945E-2
7.011292004E1,5.106873810E-2,3.392464668E-2,1.915743202E-2
7.016270212E1,-6.862427294E-2,1.364456117E-1,-1.015861891E-2
7.021247348E1,1.271924563E-2,-2.935373485E-1,3.837478533E-2
7.026223103E1,-2.130493522E-5,-2.517617121E-2,4.122969508E-2
7.031203020E1,-1.439170986E-1,4.675042629E-2,-1.518666558E-2
7.036181306E1,-1.232083812E-1,-1.328530163E-1,4.148536175E-2
7.041159379E1,-2.258998156E-1,-7.833682932E-3,-1.718935929E-2
7.046136171E1,1.742132157E-1,3.920836002E-2,-2.728806064E-2
7.051113947E1,-1.217596158E-1,-6.778671592E-2,4.664123058E-2
7.056091681E1,2.784598805E-2,-1.871388853E-1,5.294759572E-2
7.061068785E1,1.344362460E-2,1.202109903E-1,-3.687543049E-2
7.066046947E1,3.981954977E-2,-5.129643530E-2,-7.126213610E-2
7.071021816E1,6.103960052E-2,-9.505747259E-2,3.476753831E-3
7.076002488E1,-1.678642333E-1,-6.395177543E-2,-7.833550125E-2
7.080979822E1,-1.220578924E-1,2.574342117E-2,9.627297986E-4
7.085958327E1,-3.640857637E-1,-3.795933723E-2,7.288932055E-2
7.090937280E1,-1.877207607E-1,1.308636218E-1,-3.137866780E-2
7.095914363E1,-9.555414319E-2,5.484642461E-2,-3.828157112E-2
7.100893067E1,2.237053821E-3,-1.581210792E-1,2.912829816E-2
7.105868509E1,2.605847418E-1,-8.466049284E-2,6.496375799E-2
7.110847249E1,1.680772901E-1,-4.754670337E-2,1.459810510E-2
7.115822374E1,-9.964475781E-2,7.525687665E-2,-2.375138365E-2
7.120802447E1,-1.197569296E-1,1.497400850E-1,-1.049950533E-2
7.125780546E1,1.199486665E-2,1.820389032E-1,-2.302700467E-2
7.130757374E1,-2.406004369E-1,2.398187667E-1,-3.031340614E-2
7.135736098E1,-1.813717782E-1,-3.326538503E-1,-1.582582295E-2
7.140713343E1,1.051841229E-1,8.795481175E-2,1.225452404E-2
7.145691259E1,1.457493454E-1,2.211979926E-1,-1.314135920E-2
7.150669983E1,7.493064553E-2,7.548722904E-3,1.809216850E-2
7.155644863E1,-4.676507041E-2,-2.049500495E-1,9.146750718E-2
7.160624806E1,7.603851706E-2,1.011640951E-1,3.070488758E-2
7.165600770E1,1.190964691E-2,2.203883678E-1,2.525074221E-2
7.170576848E1,2.326322645E-1,2.128036916E-1,-7.175882347E-3
7.175557884E1,-1.254880242E-2,2.069660723E-1,-2.392182313E-2
7.180535473E1,-4.842688143E-2,-1.471701562E-1,-1.280047279E-2
7.185511124E1,-8.519977331E-2,8.629301190E-2,-2.656367980E-2
7.190492082E1,1.484977268E-2,2.741629183E-1,-5.059602112E-2
7.195468488E1,-3.210704029E-2,4.037840962E-1,1.702690497E-2
7.200446395E1,-1.202682704E-1,-1.065623090E-1,-2.490186691E-2
7.205422228E1,1.112348139E-1,-2.062284052E-1,-9.945566766E-3
7.210402504E1,1.681624949E-1,-3.668101132E-2,1.608947292E-2
7.215379311E1,-4.314317182E-2,6.767220050E-2,-5.357875675E-2
7.220357587E1,-1.841840893E-1,1.460329890E-1,-2.957437653E-3
7.225333275E1,-9.346621484E-2,5.846831948E-2,-2.839593031E-2
7.230313416E1,-5.281576514E-2,1.307784021E-1,3.603120521E-2
7.235289957E1,-1.343723536E-1,2.564369142E-1,2.027994720E-3
7.240267858E1,-1.935157925E-1,2.825998068E-1,-1.593899797E-3
7.245246124E1,1.933879554E-1,3.985430598E-1,1.298170388E-1
7.250223280E1,7.271488756E-2,2.633398175E-1,6.423937529E-2
7.255200770E1,9.325316548E-2,2.345350981E-1,-5.002745427E-3
7.260175426E1,-2.800152004E-1,8.578168601E-2,-1.092707515E-1
7.265155249E1,-7.348188013E-2,1.104105636E-1,-1.241698023E-2
7.270134223E1,1.547401696E-1,-6.555365864E-3,6.568814069E-2
7.275112275E1,1.951775700E-1,-2.074214667E-1,3.351718932E-2
7.280089754E1,-2.013348229E-2,-4.460659623E-2,2.652905881E-2
7.285066978E1,-1.953054518E-1,-9.147817641E-2,-3.099517524E-2
7.290044629E1,-9.866473079E-2,-4.297205806E-1,-6.261220574E-2
7.295018457E1,1.322844326E-1,-2.311981618E-1,2.537857369E-2
7.300000301E1,-1.286625415E-1,-1.181949824E-1,-4.492882267E-2
7.304974541E1,-2.548749745E-1,-2.611959577E-1,-4.407661036E-2
7.309956098E1,-1.507773995E-1,-2.487536967E-1,-1.284308732E-2
7.314931468E1,1.727857627E-2,-1.115477383E-1,-2.464620769E-2
7.319912759E1,1.936435997E-1,5.403682590E-2,2.013747767E-2
7.324888806E1,-3.372623771E-2,1.151149720E-2,3.647196339E-3
7.329865702E1,1.336905658E-1,-1.302111596E-1,1.962614805E-2
7.334838660E1,1.228248850E-1,-1.321712434E-1,2.699777670E-2
7.339820858E1,9.406276792E-2,-2.334391885E-2,1.702690125E-2
7.344800431E1,-1.256371886E-1,1.071928535E-3,-1.620931551E-2
7.349777692E1,-6.072001997E-3,-1.188341454E-1,-2.958902717E-2
7.354755358E1,-3.249053657E-2,1.211910397E-1,-5.514072254E-3
7.359732697E1,1.324548721E-1,1.908593029E-1,-5.945901573E-2
7.364711082E1,2.497616857E-1,-7.481745631E-2,2.043575048E-2
7.369688400E1,3.351958394E-1,-1.610186100E-1,-7.601988502E-3
7.374664785E1,2.336975336E-1,-1.886981353E-2,3.471028060E-2
7.379644509E1,1.123000905E-1,-7.066694554E-3,-1.978860423E-2
7.384622468E1,3.131876467E-3,6.439118832E-2,-1.522927731E-2
7.389598390E1,6.423538178E-2,1.343150884E-1,-6.751241535E-2
7.394577061E1,9.653417766E-2,-1.600385457E-1,1.408678014E-2
7.399555140E1,1.548254043E-1,-2.248065472E-1,8.707863092E-2
7.404532853E1,2.281794697E-2,-2.858501114E-2,2.699777298E-2
7.409510348E1,-1.828205138E-1,1.339315772E-1,-2.243045904E-2
7.414488290E1,1.763863415E-1,-1.112920865E-1,6.411156058E-2
7.419465343E1,7.808381319E-2,-2.821603417E-1,7.957918942E-2
7.424443546E1,-9.717334807E-2,-6.246038526E-2,2.162884548E-2
7.429421113E1,-1.470062416E-3,-3.638274595E-2,3.221087158E-3
7.434394264E1,1.923866384E-2,-4.616785645E-1,1.083839089E-1
7.439377035E1,2.473541535E-2,-1.859031320E-1,4.024965316E-2
7.444355119E1,-2.322280314E-3,-4.576305747E-1,4.851609841E-2
7.449332744E1,-3.023218177E-2,-3.455048800E-2,-5.886248127E-2
7.454310957E1,-6.483194232E-2,-2.654570043E-1,9.743299335E-2
7.459287379E1,1.945171505E-2,1.091495715E-2,-3.448923677E-2
7.464265671E1,-1.057806909E-1,2.855573408E-2,-1.569799148E-2
7.469242259E1,-2.695116773E-2,1.382778585E-1,3.661848605E-4
7.474221259E1,-4.731687605E-1,3.944524825E-1,-4.180267751E-1
7.479198212E1,-5.475667119E-1,5.985995531E-1,-1.128926352E-1
7.484176978E1,5.688510835E-3,1.402958751E0,-5.242828280E-2
7.489154676E1,3.610604405E-1,-8.125339150E-1,1.308396757E-1
7.494130770E1,6.436322629E-2,1.083890796E0,1.012679562E-1
7.499107447E1,9.448888153E-2,7.621389031E-1,-1.157901511E-1
7.504086640E1,1.045023501E-1,-1.669840515E-1,1.344762091E-2
7.509064806E1,1.903625727E-1,1.760482043E-2,6.781866401E-2
7.514043197E1,2.036570907E-1,3.634320498E-1,2.184189856E-2
7.519021572E1,1.751506478E-1,-1.435056627E-1,1.174173430E-1
7.523998546E1,-1.830336004E-1,-7.521973252E-1,1.046341732E-1
7.528976447E1,-4.467714950E-2,-1.371393912E-2,6.800377276E-3
7.533953233E1,-1.373976916E-1,-1.069884151E-1,-4.765590280E-2
7.538931785E1,-1.988847256E-1,-1.731625795E-1,-5.374920741E-2
7.543910181E1,-1.491419971E-4,-8.558064699E-3,-4.497144371E-2
7.548887900E1,-7.501584291E-2,-7.030074298E-2,-5.428850185E-3
7.553864754E1,1.588307917E-1,-2.557418048E-1,1.992442273E-2
7.558841983E1,3.330012783E-2,-1.054544300E-1,-8.400268108E-2
7.563820754E1,-2.272633314E-1,3.093166351E-1,-9.290830046E-2
7.568796009E1,6.815557182E-2,2.616780400E-1,8.405329287E-2
7.573774660E1,7.646463066E-2,8.672590256E-1,-6.792390719E-3
7.578753556E1,3.727357686E-1,9.098694921E-1,1.232976019E-1
7.583730332E1,3.763576448E-1,-2.645195723E-1,1.408957541E-1
7.588709020E1,4.949215055E-2,1.237476692E-1,1.943293512E-1
7.593687113E1,-3.136348724E-1,2.693053186E-1,2.530007623E-5
7.598663780E1,-1.163906977E-1,-2.380584478E-1,-1.770068333E-2
7.603641712E1,-1.372272819E-1,-6.655100733E-2,3.990876675E-2
7.608619447E1,3.213474452E-1,-1.547548473E-1,7.680948824E-2
7.613598046E1,2.203177959E-1,2.018101960E-1,4.378632456E-2
7.618570150E1,2.788860165E-2,-2.093815356E-1,4.689689726E-2
7.623552921E1,6.606764346E-2,-8.917719871E-2,-1.551290625E-3
7.628530916E1,-3.643201664E-3,-3.753322735E-2,1.608947664E-2
7.633506171E1,-7.267229259E-2,6.997317821E-2,-1.224653423E-2
7.638486801E1,-7.390797883E-2,9.063926339E-2,-2.341049910E-2
7.643463837E1,-2.545980178E-2,-2.192672044E-1,1.431447454E-3
7.648442046E1,-4.088481143E-2,7.568299025E-2,-1.210405608E-3
7.653419816E1,1.405934840E-1,8.902008086E-2,3.032139502E-2
7.658394410E1,1.852492988E-1,2.399466187E-1,2.938396111E-2
7.663374473E1,7.710377127E-2,1.841268241E-1,2.444114164E-2
7.668352358E1,-4.702072963E-2,-2.713372409E-1,-1.868072711E-2
7.673329405E1,-1.327531636E-1,-1.550104916E-1,-4.786894843E-2
7.678307863E1,-4.970520362E-2,-7.988811284E-2,-1.399357058E-2
7.683285192E1,-3.696463630E-2,5.028709769E-2,1.531312009E-4
7.688259468E1,-6.363884360E-2,4.892356321E-2,-1.382312737E-2
7.693241499E1,-1.136210039E-1,1.176117510E-1,-3.265698999E-2
7.698218806E1,-3.006173484E-2,-1.023864821E-1,3.902859520E-3
7.703196572E1,-6.926343590E-2,6.805569679E-2,-1.931988820E-2
7.708174270E1,-3.393290341E-1,-1.268449277E-1,-5.404748023E-2
7.713152822E1,-1.587455869E-1,-9.424787015E-2,-2.984468639E-2
7.718129134E1,1.521409303E-1,-8.316912502E-2,3.922699764E-2
7.723105848E1,-5.262402352E-3,-5.167993158E-2,-2.277134173E-2
7.728085218E1,-3.747596592E-2,2.957835980E-2,-3.487273306E-2
7.733062848E1,-1.844397187E-1,-4.013247043E-2,-3.708847985E-2
7.738041681E1,-1.292164773E-1,1.914558262E-1,-4.697412625E-2
7.743018363E1,1.585751325E-1,-3.761844710E-2,2.013747767E-2
7.747995207E1,-1.778990217E-2,7.909182459E-2,4.243744537E-3
7.752974561E1,3.802990913E-2,9.963011742E-2,-1.182043180E-2
7.757951348E1,9.906955063E-3,-1.212203354E-1,-1.522927359E-2
7.762929264E1,3.210704029E-2,-1.511329412E-1,2.277933061E-2
7.767905478E1,2.558763511E-2,9.253146127E-3,-4.107922316E-3
7.772884801E1,-1.034797132E-1,-1.903772503E-1,-3.363703191E-2
7.777862655E1,2.107091248E-2,2.177465111E-1,-5.443098024E-2
7.782840108E1,-2.961433027E-3,-8.466049284E-2,1.408678014E-2
7.787818332E1,-1.587881893E-1,-3.259040788E-2,-2.886465006E-2
7.792795994E1,-1.188621074E-1,5.791437998E-2,-2.106691897E-2
7.797773858E1,-6.883733720E-2,-4.737626389E-2,-1.557016000E-2
7.802750780E1,-9.342361242E-2,2.006597221E-1,-2.383660525E-2
7.807729119E1,-3.423756734E-2,1.942681223E-1,-3.738676012E-2
7.812707551E1,-2.563023940E-2,4.788213372E-1,-5.826592445E-2
7.817684916E1,-6.074132770E-2,2.146785706E-1,-6.874810904E-2
7.822662525E1,4.177964106E-2,6.145107001E-2,-4.150533117E-3
7.827639629E1,-1.638375409E-2,-1.558627188E-1,-8.055124432E-2
7.832617994E1,3.876067698E-1,1.540437639E-1,1.345893890E-1
7.837597150E1,7.841830254E-1,2.196640074E-1,1.220192760E-1
7.842572994E1,-1.628362089E-1,2.271807380E-2,-5.144822225E-2
7.847551046E1,-1.695686430E-1,-3.181662858E-1,3.940024376E-1
7.852528827E1,-1.176690236E-1,-2.970314026E-1,4.602618217E-1
7.857506811E1,3.674946725E-1,-4.636386037E-1,6.132762432E-1
7.862484624E1,2.009300143E-1,1.802066267E-1,9.314394556E-3
7.867462254E1,1.720400602E-1,-1.451248378E-1,-2.975947037E-2
7.872439692E1,-1.118526980E-2,-1.895250231E-1,1.199886575E-2
7.877417572E1,2.331435829E-1,-9.322520345E-2,2.981286943E-1
7.882395233E1,3.347697556E-1,1.600092351E-1,4.932570085E-2
7.887370025E1,2.155880481E-1,4.668904245E-1,-5.552753210E-1
7.892349765E1,-2.089833915E-1,4.922185838E-2,-3.495090306E-1
7.897325046E1,-3.960011303E-1,-2.563809752E-1,2.933989167E-1
7.902303629E1,2.611813545E-1,-1.613594741E-1,3.762338161E-1
7.907281348E1,3.772524595E-1,1.777352393E-1,1.025182381E-2
7.912260082E1,2.364883898E-3,-4.558662698E-2,-2.997252718E-2
7.917241181E1,6.900777668E-2,-4.021769017E-2,-7.948598266E-2
7.922217410E1,8.110916615E-2,1.145437956E-1,-6.695847213E-2
7.927194541E1,-1.552089155E-1,7.214631140E-2,-2.190448344E-3
7.932172879E1,1.555287279E-3,1.472686678E-1,-9.895898402E-2
7.937149848E1,-5.826991051E-2,8.902009577E-2,-8.280961215E-2
7.942127061E1,1.021587625E-1,-3.163339794E-1,-6.022600830E-2
7.947103374E1,2.814426273E-2,-6.563661695E-1,-7.815040648E-3
7.952081640E1,1.721678972E-1,-3.186602890E-2,2.205495164E-2
7.957060785E1,3.871168196E-2,-2.766635716E-1,-2.638191283E-1
7.962038233E1,7.522890717E-2,-1.018751413E-1,1.016940475E-1
7.967015004E1,-2.192951590E-1,-9.282440878E-3,1.101309285E-1
7.971993843E1,1.270007044E-1,8.965922147E-2,4.250801727E-2
7.976972015E1,3.855188787E-1,-1.226518117E-2,4.012182355E-2
7.981949098E1,-1.409343779E-1,-3.572627436E-3,2.086185478E-2
7.986925660E1,2.222778946E-1,-8.001593500E-2,-2.020006534E-3
7.991905978E1,-1.918965727E-1,2.480599284E-2,-3.751458600E-2
7.996881999E1,-3.330013901E-2,1.278982125E-2,-7.279612124E-2
8.001860390E1,1.058871951E-2,1.013345346E-1,-3.768503293E-2
8.006838186E1,-9.651290253E-3,-1.414004527E-2,1.276585180E-2
8.011817322E1,-1.405082792E-1,1.448398829E-1,-2.728805877E-2
8.016793040E1,-1.692704111E-1,2.902443148E-2,-5.813809484E-2
8.021769004E1,-3.330014274E-2,2.623214386E-4,-5.641902331E-3
8.026749837E1,3.479150683E-2,-4.098468646E-2,-2.166346647E-2
8.031725593E1,1.241884232E-1,-1.456361860E-1,-3.811113536E-2
8.036704072E1,1.044597402E-1,-3.570097685E-2,-2.562624402E-2
8.041682447E1,8.243010193E-2,-1.536469907E-1,-5.021252483E-2
8.046661160E1,-5.200616270E-2,-5.087032542E-2,-6.891856343E-2
8.051638363E1,-1.787299216E-1,-1.520703584E-1,-1.137022525E-1
8.056616212E1,-3.134005144E-2,7.461772114E-2,-6.107820943E-2
8.061590978E1,-2.631200850E-2,-1.115051359E-1,-6.661760062E-2
8.066571764E1,1.791773364E-2,-1.128512993E-2,-2.140780166E-2
8.071547947E1,1.608548127E-2,1.583249774E-3,9.201209759E-4
8.076525785E1,1.597682238E-1,-8.934766054E-2,2.241048496E-3
8.081504197E1,-1.276185922E-2,4.871050641E-2,4.073301330E-3
8.086481291E1,2.195934355E-1,2.621214092E-2,4.020703956E-2
8.091459093E1,-2.109221648E-3,1.363603920E-1,-6.026862189E-2
8.096437218E1,9.355145693E-2,1.267303973E-1,-3.419097140E-2
8.101413087E1,-8.907733113E-2,4.466250911E-2,-3.525623307E-2
8.106386447E1,-3.061568551E-2,-2.307294309E-1,1.817739196E-2
8.111366863E1,6.121004373E-2,8.970186859E-2,-8.922913112E-3
8.116348150E1,-2.115613967E-2,1.697670519E-1,-5.583712086E-2
8.121326973E1,-1.403378397E-1,2.810657918E-1,-1.546509862E-1
8.126303332E1,-9.404358864E-1,-1.871814579E-1,-1.429756731E-1
8.131281806E1,1.082946956E-1,-4.643882811E-2,3.232407942E-2
8.136258410E1,-6.538587809E-2,4.641633630E-1,-5.548492670E-1
8.141237832E1,-2.107090130E-2,-5.122572780E-1,-3.887812793E-2
8.146213530E1,3.528792560E-1,-1.621690542E-1,1.068499163E-1
8.151193249E1,1.135572046E-2,4.457729310E-2,-2.422010154E-2
8.156169681E1,-1.199273691E-1,-1.243563369E-2,-8.920117468E-2
8.161147421E1,-6.248836219E-2,1.209354028E-1,-1.953294314E-2
8.166125843E1,-1.200978085E-1,1.164612770E-1,1.066794768E-1
8.171101509E1,1.945171878E-2,2.178743631E-1,-1.557016000E-2
8.176081577E1,1.906821877E-2,-1.217995211E-2,3.530683368E-2
8.181058384E1,1.331792325E-1,-7.081206888E-2,6.815955043E-2
8.186036983E1,-1.395495236E-2,-2.538922615E-2,-4.022702109E-3
8.191014749E1,1.629853062E-2,-1.321712732E-1,1.204147283E-2
8.195992978E1,-3.372624516E-2,-1.711172760E-1,1.212669350E-2
8.200970291E1,3.675158322E-2,2.691119909E-3,2.763693407E-2
8.205948306E1,-8.677636087E-2,4.044406861E-2,-1.071255654E-2
8.210926207E1,1.035223380E-1,1.070190594E-2,-1.025322126E-4
8.215903640E1,-2.162485011E-2,-2.202299237E-2,-2.446111292E-3
8.220881171E1,4.538024776E-3,5.838309973E-2,7.567366585E-3
8.225859134E1,5.873862281E-2,-1.520530879E-2,7.922893856E-4
8.230836952E1,1.917481422E-4,-1.904025488E-2,1.772332238E-3
8.235814848E1,-2.277533524E-2,1.462207548E-2,-4.704470281E-3
8.240794077E1,-1.385055929E-1,5.748827755E-2,-3.742937371E-2
8.245769900E1,1.060789376E-1,3.946401924E-2,-7.837809622E-2
8.250750035E1,-2.077263966E-2,9.860745072E-2,-1.431887150E-1
8.255725957E1,-4.446410388E-2,-1.068858989E-2,-5.556680728E-3
8.260703520E1,5.560676567E-3,-6.280128658E-2,8.078691550E-3
8.265679155E1,4.331360757E-2,3.605517745E-2,1.242496446E-2
8.270658473E1,-1.499678344E-1,-5.065727979E-2,5.692504346E-3
8.275636030E1,1.057380661E-1,-3.263302147E-2,3.300585970E-2
8.280613718E1,1.361406967E-2,1.908592731E-1,4.669848364E-3
8.285592634E1,1.770467870E-2,4.602603614E-2,-5.428850185E-3
8.290570572E1,-7.946865633E-3,-1.644101180E-2,-7.416902808E-4
8.295547613E1,6.199834868E-3,-2.717886865E-2,2.895786054E-2
8.300524645E1,1.917481422E-4,-4.038813338E-2,9.743300080E-2
8.305502238E1,2.639722824E-2,1.244893670E-2,7.097185403E-2
8.310479358E1,-1.131097004E-1,-1.123999506E-1,9.312932938E-2
8.315457374E1,-3.040262870E-2,-1.210499033E-1,1.926675737E-1
8.320432540E1,1.343723536E-1,2.051960211E-3,2.543250322E-1
8.325413488E1,9.478712082E-2,-5.061466247E-2,1.614766419E-1
8.330390009E1,7.245923579E-2,-1.110364199E-1,1.708083898E-1
8.335369598E1,-1.602795720E-1,8.528765291E-3,1.957421191E-4
8.340347457E1,-3.768901899E-2,5.135236681E-2,-2.311222814E-2
8.345325254E1,-1.186064407E-1,-3.768384922E-4,-8.059385419E-2
8.350302264E1,-3.376885876E-2,1.227849163E-2,-1.563127935E-1
8.355278228E1,-5.219791550E-3,1.346985698E-1,-1.695646495E-1
8.360255202E1,-1.600025780E-2,6.358159333E-2,-8.464185894E-2
8.365233285E1,2.682333253E-2,2.143976092E-2,-2.571146749E-2
8.370211249E1,2.119874582E-2,8.162565064E-4,-8.283755742E-3
8.375191124E1,3.116962127E-2,1.066182405E-1,-1.187728941E-1
8.380168014E1,-1.370568126E-1,5.284372345E-2,-2.946119383E-2
8.385147316E1,3.730553761E-2,5.801691208E-3,4.201133270E-3
8.390124483E1,1.197995394E-1,1.082973555E-2,3.070489131E-2
8.395102916E1,-7.429149002E-2,-6.555366330E-3,-7.772430778E-3
8.400079947E1,-9.423321486E-2,-3.071554191E-2,-1.151084006E-1
8.405056926E1,9.448888153E-2,-1.469397545E-2,5.030574277E-2
8.410036082E1,-1.352884807E-2,1.108539850E-2,-5.130575970E-3
8.415014160E1,-5.324187130E-2,1.325853728E-2,-3.287004307E-2
8.419991374E1,-3.436540067E-2,4.905139655E-2,-9.604682215E-3
8.424965546E1,5.051479489E-2,5.608212948E-2,1.084837876E-2
8.429946233E1,1.723596640E-2,-4.169174936E-3,7.737809792E-3
8.434923582E1,1.029044949E-2,-3.527487442E-2,-4.491416737E-3
8.439901530E1,4.271706939E-2,1.104531810E-1,-3.298322670E-3
8.444879077E1,-4.612591118E-2,-2.257693186E-2,-2.375138365E-2
8.449855509E1,-4.118308425E-2,-2.244909480E-2,3.476753831E-3
8.454834801E1,1.076555327E-1,-4.639622197E-2,1.770867407E-2
8.459812171E1,1.467933320E-2,1.202283055E-2,6.629934069E-3
8.464789582E1,-1.693982184E-1,-6.122469157E-2,-3.674760088E-2
8.469768796E1,-1.842692643E-1,-8.717450500E-2,-1.510144770E-2
8.474744176E1,7.484542578E-2,1.108540036E-2,1.199886389E-2
8.479725447E1,6.679203361E-2,4.628170282E-2,1.536509581E-2
8.484701895E1,-8.336752653E-2,1.662477292E-2,-1.625192724E-2
8.489679129E1,5.413669720E-2,2.075798810E-2,1.216930524E-2
8.494655775E1,2.128396183E-2,6.575472653E-2,-1.849564607E-3
8.499633551E1,1.232936084E-1,-3.979158774E-2,2.584728785E-2
8.504608014E1,-1.508200318E-1,-7.878023386E-2,-3.257176280E-2
8.509590624E1,1.817552447E-1,-7.831151783E-2,4.706733674E-2
8.514567942E1,-2.401104011E-2,1.129246056E-1,-5.191695690E-2
8.519545567E1,-2.031457573E-1,3.388204426E-2,-8.315048367E-2
8.524522166E1,1.715287268E-1,-1.328104138E-1,-5.617800355E-2
8.529501613E1,1.753210723E-1,-9.113729000E-2,1.470742971E-1
8.534478796E1,6.747379899E-2,5.961880460E-2,3.817637451E-3
8.539455473E1,7.356710732E-2,4.785829410E-2,-2.403501887E-3
8.544434817E1,-7.228877395E-2,8.254328370E-2,8.973513730E-3
8.549412593E1,1.091042906E-1,-9.708547965E-3,-8.283755742E-3
8.554390613E1,1.816274375E-1,-5.819934607E-2,-5.306743085E-2
8.559367759E1,3.040901721E-1,-1.479797661E-1,7.207971811E-2
8.564344973E1,-6.412892137E-3,-8.065510541E-2,1.804955862E-2
8.569323077E1,-1.580212116E-1,-1.980471313E-1,-1.897900179E-2
8.574300040E1,-4.177963734E-2,-2.526313066E-1,3.006573208E-2
8.579278764E1,2.346775383E-1,2.613371313E-1,-2.716022544E-2
8.584256509E1,-2.091964781E-1,-6.077474952E-1,1.703822613E-1
8.589234702E1,-1.050562784E-1,-2.356722951E-1,1.611357778E-1
8.594212634E1,-5.354015529E-2,2.583970129E-1,-2.132830620E-1
8.599189223E1,-1.126409918E-1,2.637233138E-1,-1.563979983E-1
8.604166249E1,-8.110915869E-2,6.332592666E-2,2.674210817E-2
8.609145186E1,-5.100268722E-1,3.379083276E-1,-6.664555520E-3
8.614121832E1,1.594699472E-1,-8.708929271E-2,3.551987931E-2
8.619100525E1,1.329661906E-1,1.219154224E-1,4.783433303E-2
8.624078468E1,-5.933518708E-2,-7.153644413E-2,-2.724544518E-2
8.629054546E1,-2.447975613E-2,9.387768805E-2,-1.717804074E-1
8.634033728E1,-1.520557255E-1,1.165038645E-1,-1.158327684E-1
8.639010848E1,-1.982881576E-1,4.517383501E-2,2.627339400E-2
8.643988108E1,-2.201047540E-1,-7.613837719E-2,-4.062515870E-2
8.648965910E1,1.973081082E-1,3.908052668E-2,-4.458793253E-2
8.653944660E1,3.223488107E-2,1.871268637E-2,2.503768355E-2
8.658922192E1,-7.527151704E-2,-9.169122577E-2,-5.684513599E-3
8.663900770E1,3.108439408E-2,-6.953374296E-2,1.596164331E-2
8.668878504E1,-2.384059690E-2,-5.947765335E-2,5.436838605E-3
8.673854822E1,-3.423757106E-2,-2.590055391E-2,2.392981574E-2
8.678833707E1,-7.096784562E-2,-7.059901208E-2,2.137318067E-2
8.683811051E1,-4.318578914E-2,2.776342910E-3,-5.852158740E-2
8.688788806E1,9.310405701E-3,7.095321268E-2,-1.195825115E-1
8.693766775E1,-9.282705933E-2,1.538733244E-1,-3.555450588E-2
8.698742358E1,-2.256227657E-2,1.347159036E-2,3.539204597E-2
8.703722046E1,7.011564076E-2,-6.390915811E-2,5.797563493E-2
8.708699176E1,-1.435762495E-1,1.046581641E-1,-4.838027805E-2
8.713677608E1,-1.544419229E-1,5.910747871E-2,-1.532022059E-1
8.718655384E1,-2.071085423E-1,1.053146273E-2,-1.995625049E-1
8.723631468E1,-1.114265434E-2,6.826875359E-2,-1.001094729E-1
8.728610452E1,1.761945710E-2,1.449424215E-2,4.542017356E-3
8.733586759E1,-3.739074618E-2,-3.689407185E-2,-5.599292461E-3
8.738566124E1,-7.331144065E-2,-3.510442749E-2,-7.559377700E-3
8.743544166E1,-5.111134425E-2,2.369811945E-2,3.348922124E-3
8.748522004E1,2.153962851E-2,5.886909086E-3,4.542017821E-3
8.753499051E1,5.603285506E-3,-5.700623989E-2,2.709764056E-3
8.758477306E1,-4.314317554E-2,2.510426752E-2,1.144492533E-2
8.763455082E1,4.429366067E-2,-5.517399311E-2,1.346226898E-3
8.768432577E1,-2.213617787E-2,-7.498789579E-2,3.391532460E-3
8.773409613E1,5.042957887E-2,-1.741426438E-1,1.404416934E-2
8.778388723E1,5.773729179E-3,-1.230526045E-1,1.127448305E-2
8.783365462E1,9.666201472E-2,-3.297390044E-2,5.607279949E-3
8.788344093E1,6.696247309E-2,-1.719695032E-1,1.303615980E-3
8.793318832E1,9.955953807E-2,2.267546766E-2,3.411373496E-2
8.798299447E1,2.406856418E-1,7.589603961E-2,1.498159766E-2
8.803277749E1,2.810164168E-2,1.832745820E-1,-4.661859944E-3
8.808255598E1,2.669550478E-2,2.065399587E-1,1.579120010E-2
8.813232223E1,-2.835732140E-2,-6.342311390E-3,1.276585367E-2
8.818207848E1,1.749162748E-2,1.401101202E-1,-4.832303151E-3
8.823187395E1,-6.423539668E-2,2.888209522E-1,-2.230262570E-2
8.828166619E1,5.746032298E-2,-2.683798596E-2,1.694168523E-2
8.833142895E1,-3.423757106E-2,5.369593948E-2,7.493462414E-2
8.838120525E1,-2.166746184E-2,1.307783872E-1,2.120127380E-1
8.843098775E1,-1.392299384E-1,-1.796820164E-1,4.219974875E-1
8.848076577E1,-4.800079018E-2,-4.064380005E-2,5.246036649E-1
8.853054442E1,-2.413887531E-2,1.414736509E-1,2.711988389E-1
8.858031952E1,-1.512675080E-3,9.988577664E-2,1.253855079E-1
8.863007009E1,-9.353015572E-3,2.234137505E-1,2.488708943E-1
8.867987488E1,3.070089407E-2,-7.762975246E-2,6.236451492E-2
8.872965900E1,2.081311494E-1,4.317114130E-2,-1.292830519E-2
8.877942973E1,-3.217095044E-3,1.795248687E-1,-2.396443672E-2
8.882921520E1,2.412822098E-1,6.025796384E-2,1.924265362E-2
8.887899686E1,1.359915286E-1,2.326176167E-1,3.360240906E-2
8.892875655E1,5.025914311E-2,5.097138882E-1,-8.958467096E-2
8.897854145E1,1.632622778E-1,-1.306798905E-1,-2.140780725E-2
8.902831561E1,2.976985574E-1,-1.314468682E-1,4.203929380E-2
8.907809390E1,2.116678804E-1,2.728419304E-1,4.063315317E-2
8.912787072E1,1.108513251E-1,1.962708235E-1,6.952308863E-2
8.917765270E1,7.846730947E-2,7.287068665E-2,6.351500005E-2
8.922741035E1,2.488668412E-1,-2.117078193E-2,2.145840041E-2
8.927719848E1,1.676511914E-1,-1.091615707E-1,5.852957070E-2
8.932698957E1,1.166463494E-1,-1.897380948E-1,1.202296317E-1
8.937675494E1,-6.133787334E-2,-3.636316955E-1,1.612209827E-1
8.942653223E1,1.011787280E-1,-2.033734620E-1,1.616470814E-1
8.947631317E1,8.439019322E-2,1.690852642E-1,1.121762395E-1
8.952609598E1,-1.421061717E-2,2.067529708E-1,-2.758633345E-2
8.957585561E1,-6.838989910E-3,1.985291988E-1,-9.550754726E-2
8.962565238E1,-4.047981929E-4,-1.043292694E-2,-6.103560701E-2
8.967542973E1,2.942258120E-2,2.080059983E-2,-4.838027805E-2
8.972521832E1,5.243228376E-2,-5.973331630E-2,3.743736073E-2
8.977496176E1,4.497543350E-2,1.768830419E-1,3.338935226E-2
8.982476192E1,-3.709247708E-2,-2.091258764E-1,8.754734695E-2
8.987453249E1,5.984650180E-2,-1.835847460E-2,-4.186086729E-2
8.992431275E1,-1.027979478E-1,-1.009203587E-2,2.512570918E-1
8.997408395E1,6.444845349E-2,1.144159809E-1,1.174599677E-1
9.002385296E1,1.117035374E-1,-7.119555771E-2,-1.062880084E-1
9.007364311E1,2.535326872E-3,6.895051152E-2,-1.441261619E-1
9.012340176E1,3.151049465E-2,1.928619742E-1,5.201016739E-2
9.017319697E1,1.557415351E-2,6.967489421E-2,1.157275680E-2
9.022296400E1,3.287403658E-2,2.749045752E-2,7.269091904E-3
9.027275155E1,9.056871384E-2,8.565385640E-2,-8.709862828E-3
9.032254020E1,8.323969692E-2,1.614580005E-1,-8.361919969E-2
9.037230009E1,1.156876236E-2,1.354655623E-1,-1.211870555E-2
9.042209207E1,1.340101473E-2,2.608684003E-1,1.025182847E-2
9.047186640E1,1.391234249E-2,2.508122921E-1,2.496711677E-3
9.052163744E1,8.245140314E-3,7.235936821E-2,-7.416898152E-4
9.057141794E1,1.683116192E-3,-2.251700731E-3,-5.286376690E-4
9.062116726E1,1.683116541E-3,6.375203282E-2,7.496790495E-4
9.067097778E1,2.961432328E-3,6.545645744E-2,8.349004202E-4
9.072074241E1,1.768337563E-3,-2.976080868E-3,1.531316666E-4
9.077053820E1,1.297491044E-2,-4.852675274E-2,1.672863401E-2
9.082030403E1,1.915343665E-2,8.162574377E-4,9.868334979E-3
9.087007736E1,4.197138362E-3,-3.527486697E-2,5.351617932E-3
9.091985820E1,2.609895915E-2,-6.250300258E-2,1.434244122E-2
9.096962778E1,9.990042448E-2,-8.823976666E-2,-7.261102088E-3
9.101940226E1,4.519487917E-1,-1.479797661E-1,2.009486593E-2
9.106919090E1,2.270311117E0,-1.311290145E0,3.564198613E-1
9.111896033E1,1.151400685E0,-3.740537167E-2,-1.641957164E-1
9.116873731E1,1.302391291E-1,1.115508080E0,-9.026645124E-2
9.121853080E1,5.158646107E-1,-2.368227839E-1,-2.204696275E-2
9.126829361E1,8.468845487E-2,-4.524320960E-1,-4.356529191E-2
9.131807976E1,1.847806126E-1,6.843919307E-2,-3.103778884E-2
9.136784820E1,5.414308906E-1,1.769682467E-1,-6.900378317E-2
9.141763616E1,3.097147346E-1,2.265243232E-1,-6.393313408E-2
9.146739814E1,2.863641679E-1,-1.275267005E-1,-4.531232268E-2
9.151718700E1,2.528722882E-1,-4.209255055E-2,7.993470877E-3
9.156697538E1,-1.120018214E-1,-7.635144144E-2,-5.072385818E-2
9.161674768E1,3.680060208E-1,-2.377003059E-2,-5.302483216E-2
9.166653038E1,2.337188087E-2,1.508053541E-1,-1.197529435E-1
9.171628971E1,2.324404940E-2,-1.537575014E-2,-1.468532234E-1
9.176608346E1,9.734378755E-2,6.720348448E-2,2.069141530E-2
9.181585153E1,1.984586120E-1,-1.808324903E-1,-2.549841441E-2
9.186561278E1,7.357348800E-1,-8.581096679E-2,-1.005782187E-1
9.191539283E1,5.311192274E-1,1.213188693E-1,-1.212869138E-1
9.196518892E1,3.094590902E-1,1.450955421E-1,-1.201790571E-1
9.201496132E1,-2.239183895E-2,1.588587463E-1,-7.974164188E-2
9.206473971E1,-4.301534221E-2,8.028493822E-2,-2.967425063E-2
9.211451684E1,1.183081716E-1,3.694999591E-2,-5.864941701E-2
9.216429752E1,1.547827870E-1,1.421128064E-1,-1.196251139E-1
9.221407116E1,-4.825004935E-1,3.037346303E-1,-1.419104189E-1
9.226383736E1,-3.944244683E-1,1.343577057E-1,-9.597624838E-2
9.231359106E1,-1.639866680E-1,9.443161637E-2,-1.454750448E-2
9.236341184E1,-3.369428515E-1,2.910965495E-2,8.888293058E-3
9.241319580E1,-5.609890819E-1,2.373473644E-1,-5.864941701E-2
9.246295533E1,-7.861006260E-1,3.697810173E-1,-9.589102864E-2
9.251273471E1,-8.548741341E-1,4.648452103E-1,-9.286569059E-2
9.256250773E1,-4.641353488E-1,3.532906771E-1,-5.856420100E-2
9.261226044E1,-2.111991644E-1,9.941706806E-2,7.695198059E-3
9.266206174E1,-1.978194267E-1,-3.058771230E-2,1.404416747E-2
9.271185939E1,-2.651866972E-1,8.292676508E-2,4.514054162E-4
9.276162830E1,-2.772028744E-1,1.234068051E-1,-3.321092948E-2
9.281140648E1,-1.681199223E-1,3.592734784E-2,-8.922914043E-3
9.286119096E1,-1.934731901E-1,8.060049266E-3,4.514049506E-4
9.291095491E1,-1.333496869E-1,5.309940130E-2,1.005342347E-3
9.296074262E1,-5.196354911E-2,3.187934309E-2,-1.731142402E-5
9.301051570E1,-4.719117656E-2,-3.357045352E-2,-4.150534049E-3
9.306028481E1,-8.315447718E-2,7.037396077E-3,-2.460359596E-2
9.311007241E1,-9.018520266E-2,6.818352640E-2,-5.570929125E-2
9.315985195E1,-4.510326311E-2,1.233641729E-1,-1.404190511E-1
9.320962122E1,-7.868036628E-2,-9.751156904E-3,-2.792721242E-2
9.325940111E1,-4.685029015E-2,4.099800438E-2,-1.352485176E-2
9.330919408E1,-1.395708472E-1,-4.166645184E-2,-3.713109344E-2
9.335896236E1,8.865122497E-2,2.416683361E-2,-1.751466244E-1
9.340872830E1,1.202256456E-1,8.970185369E-2,-2.849965990E-1
9.345850294E1,-7.399321347E-2,5.143757537E-2,-1.992642134E-1
9.350829122E1,-1.909165829E-1,-9.015725553E-2,-1.336013824E-1
9.355807252E1,-4.443214834E-1,1.913879067E-2,-4.565466046E-1
9.360784851E1,-8.431987762E-1,-1.764862090E-1,-6.020191312E-1
9.365763335E1,-9.676641822E-1,-4.628716111E-1,-1.025382653E-1
9.370741111E1,-2.918609083E-1,-1.343017966E-1,4.815671146E-1
9.375717611E1,2.210848182E-1,3.458764255E-1,4.475637674E-1
9.380694424E1,2.206586897E-1,2.909941077E-1,3.595304787E-1
9.385672898E1,6.618055701E-1,7.956053317E-2,7.822270393E-1
9.390652137E1,6.453580260E-1,-2.847169936E-1,9.971119761E-1
9.395627627E1,1.634753346E-1,-2.424899638E-1,6.053079963E-1
9.400606762E1,7.944735885E-2,1.775647849E-1,-3.581991186E-4
9.405584320E1,1.378664076E-1,-5.404881202E-3,1.979659311E-2
9.410561137E1,1.249127984E-1,6.170672923E-2,1.506961733E-1
9.415541200E1,1.619413495E-1,-1.228395402E-1,4.627331793E-1
9.420514965E1,2.859380245E-1,-2.462223917E-2,3.731658161E-1
9.425497106E1,2.728140354E-1,3.435075656E-2,1.375295073E-1
9.430472747E1,-1.055250168E-1,-4.963462800E-2,-1.173521206E-2
9.435450976E1,-1.276824921E-1,-4.912329838E-2,-9.533710778E-2
9.440428846E1,3.274620324E-2,4.139880650E-3,-3.240132332E-2
9.445405991E1,1.291738600E-1,5.382376909E-2,-7.985482924E-3
9.450383825E1,9.653416276E-2,5.480382219E-2,-1.047966331E-1
9.455361268E1,5.490367860E-2,4.133889079E-2,-7.526753098E-2
9.460339622E1,-3.675158694E-2,-9.307749569E-4,-2.596713789E-2
9.465317403E1,-2.222139575E-2,1.116036698E-1,-1.889378019E-2
9.470294044E1,9.887776524E-2,5.531514063E-2,-1.326918881E-2
9.475272731E1,-1.776646674E-1,5.953358859E-2,-4.860266345E-4
9.480246762E1,1.814569831E-1,2.859832905E-2,-5.684514064E-3
9.485228413E1,2.077476829E-1,-2.157731652E-1,5.307542160E-2
9.490201299E1,-5.579850078E-2,-1.368584186E-1,1.851827651E-2
9.495182757E1,1.452806443E-1,8.846614510E-2,-2.673411556E-2
9.500161585E1,-3.393929824E-2,-1.953426050E-3,1.647297107E-2
9.505139507E1,1.473685354E-1,7.804388646E-3,5.333108827E-2
9.510116788E1,-3.159571812E-2,-1.479371488E-1,4.749344662E-2
9.515094054E1,-7.672029734E-2,-4.703537747E-2,2.623078600E-2
9.520073090E1,-1.491368748E-4,1.244893670E-2,-1.484578103E-2
9.525051012E1,-5.072785541E-2,1.764742099E-2,-1.126649603E-2
9.530027320E1,-6.721812487E-2,-7.025812566E-2,1.604686491E-2
9.535006507E1,1.438105851E-2,2.267546766E-2,8.163914084E-3
9.539983460E1,4.084221274E-2,3.989012539E-2,3.488072008E-2
9.544961340E1,-2.277533710E-2,-6.488920748E-2,-5.641902331E-3
9.549938189E1,-1.491368748E-4,5.787177011E-2,1.195625309E-2
9.554915903E1,6.391573697E-5,-4.929374531E-2,-3.511375282E-3
9.559894491E1,-2.128396556E-2,3.554384783E-2,9.016123600E-3
9.564869143E1,1.084438339E-2,-1.652623154E-2,1.157275680E-2
9.569851715E1,-6.242444273E-3,3.311504796E-2,-1.045689359E-2
9.574826939E1,2.328665927E-2,4.675043002E-2,-2.191912755E-2
9.579805044E1,4.263184965E-2,8.420509845E-2,-1.481741518E-1
9.584783330E1,1.522261500E-1,9.161932021E-2,-6.954214573E-1
9.589760866E1,3.848371208E-1,2.148490250E-1,-1.078873634E0
9.594738872E1,4.101051688E-1,3.105522990E-1,-8.707212210E-1
9.599716346E1,2.139262557E-1,-5.585576594E-2,-5.118125677E-1
9.604694028E1,1.629640311E-1,-6.442049146E-2,-1.118128095E-2
9.609670309E1,2.409412861E-1,-1.266744882E-1,6.926742941E-2
9.614650168E1,-2.130609937E-5,-1.405229121E-1,6.033386569E-3
9.619620148E1,-5.532979220E-2,7.892138511E-2,2.496710978E-3
9.624604788E1,-1.440449357E-1,1.395987570E-1,-1.020123065E-2
9.629582518E1,-8.366580307E-2,6.183455884E-2,2.283658599E-3
9.634559700E1,-2.237054519E-3,-3.501920775E-2,2.529335208E-2
9.639536887E1,-3.244792670E-2,3.814309463E-2,1.135970373E-2
9.644514689E1,-1.015622392E-1,2.648511436E-3,-7.261102088E-3
9.649493658E1,-4.254663363E-2,5.339766666E-2,6.791029591E-5
9.654468768E1,-2.705769613E-3,-4.639622197E-2,2.709764056E-3
9.659448794E1,1.233575307E-2,-2.176732942E-2,1.361806411E-2
9.664426163E1,-3.155310079E-2,2.604169957E-2,6.791041233E-5
9.669403700E1,-3.845601901E-2,1.837179996E-2,2.405764721E-2
9.674377741E1,-1.382712275E-2,2.152497880E-2,9.570060298E-3
9.679358950E1,3.941475414E-3,1.966741867E-3,2.027995652E-3
9.684336918E1,1.463672146E-2,2.885399573E-2,6.033385638E-3
9.689315908E1,1.770468056E-2,-8.259788156E-3,-2.446111757E-3
9.694294924E1,6.875211000E-2,-1.128513739E-2,9.186566807E-3
9.699270924E1,-2.961434424E-3,-3.305912390E-2,-6.564691430E-4
9.704249268E1,-9.821729735E-3,3.861180693E-2,-9.391630068E-3
9.709226210E1,-2.605634928E-2,2.574342303E-2,5.792364245E-4
9.714205116E1,1.463672146E-2,7.548722904E-3,9.910944849E-3
9.719183851E1,1.450888999E-2,4.704869911E-2,-8.624641225E-3
9.724159481E1,-2.349971421E-2,3.771698847E-2,-3.383544274E-3
9.729139210E1,-5.596895143E-2,5.540036038E-2,-9.093357250E-3
9.734115283E1,-5.844036117E-2,4.594081640E-2,-4.612192139E-2
9.739093705E1,-4.757467285E-2,1.683781855E-2,-5.468663201E-2
9.744071366E1,7.733814418E-3,1.157142688E-3,3.732417710E-3
9.749048471E1,-1.822666228E-1,4.849745706E-2,3.061966598E-2
9.754026590E1,-4.998003244E-1,2.074347734E-1,-3.852257505E-3
9.759004695E1,-8.780966997E-1,2.736515999E-1,-9.073515236E-2
9.763981320E1,-2.524461448E-1,2.413953841E-1,6.705167890E-2
9.768959971E1,7.471758872E-2,-2.031857148E-2,1.390635073E-1
9.773936314E1,2.955254316E-1,-9.367661551E-3,2.968223765E-2
9.778915142E1,3.289746940E-1,2.642519400E-2,1.749562286E-2
9.783888424E1,-6.308491528E-2,6.745915860E-2,-6.621944718E-3
9.788867726E1,-1.597682387E-1,2.033188753E-2,1.370328292E-2
9.793848528E1,1.791986227E-1,-2.239117324E-1,4.141571820E-1
9.798825632E1,4.543349147E-1,-3.475675285E-1,3.051594198E-1
9.803802715E1,3.934444785E-1,-5.017324686E-1,2.120979875E-1
9.808782762E1,-2.279024720E-1,-2.725729644E-1,-9.427183867E-2
9.813759476E1,-2.965480685E-1,3.415500745E-3,-5.940175615E-3
9.818737497E1,-6.824078411E-2,-2.662493102E-2,8.550203592E-2
9.823714689E1,1.668202691E-2,-7.081206143E-2,6.487854570E-2
9.828692747E1,-1.796247512E-1,-1.259927303E-1,4.787693918E-2
9.833669273E1,1.740640216E-2,-2.480293214E-1,3.615904227E-2
9.838649090E1,-8.841698989E-3,-4.616359174E-1,2.218278125E-2
9.843626163E1,1.029043365E-2,5.015925318E-2,3.266497329E-2
9.848603596E1,3.009369671E-1,3.370986879E-1,-4.747081082E-3
9.853583168E1,-1.033944860E-1,1.242590174E-1,-2.954641730E-2
9.858559122E1,1.511608958E-1,5.297154933E-2,7.178144902E-2
9.863536038E1,1.063772365E-1,-1.457640231E-1,1.762345433E-2
9.868513887E1,-7.484540343E-2,-1.137035526E-2,-2.064081468E-2
9.873492424E1,8.507195115E-2,5.382377654E-2,-2.643584833E-2
9.878470372E1,-2.020805031E-1,4.828440398E-2,-1.361007337E-2
9.883445721E1,1.227822676E-1,1.070869789E-1,-4.534028471E-3
9.888426663E1,-1.378451288E-2,3.707782552E-2,-7.644598372E-3
