"Time (s)","Acceleration x (m/s^2)","Acceleration y (m/s^2)","Acceleration z (m/s^2)"
5.137906700E-2,-2.603627205E0,2.844845504E-2,9.494234085E0
1.013790670E-1,-2.602278471E0,1.951448619E-2,9.449968338E0
1.513790670E-1,-2.573646784E0,-1.735442318E-2,9.481821060E0
2.013790670E-1,-2.577070475E0,-3.666186333E-2,9.502677917E0
2.513790670E-1,-2.589804173E0,-9.673924185E-3,9.489854813E0
3.457129750E-1,-2.551905155E0,-1.501853019E-2,9.494185448E0
3.957129750E-1,-2.571074486E0,1.814064942E-2,9.483642578E0
4.457129750E-1,-2.601210594E0,1.656908542E-2,9.468650818E0
4.957129750E-1,-2.593771935E0,-1.016806439E-2,9.482980728E0
5.457129750E-1,-2.551408768E0,-1.693509892E-2,9.480167389E0
5.957129750E-1,-2.561244726E0,-5.853635259E-3,9.496446609E0
6.457129750E-1,-2.577796936E0,1.991075464E-3,9.480832100E0
6.957129750E-1,-2.596020937E0,1.399740018E-2,9.478406906E0
7.457129750E-1,-2.585567474E0,7.557100616E-4,9.480064392E0
7.957129750E-1,-2.558969736E0,-2.084821835E-2,9.492126465E0
8.457129750E-1,-2.565814734E0,-1.083712652E-2,9.486961365E0
8.957129750E-1,-2.584227562E0,1.311114803E-2,9.484054565E0
9.457129750E-1,-2.574275970E0,-4.813306499E-3,9.486381531E0
9.957129750E-1,-2.579281807E0,-1.014643162E-2,9.481446266E0
1.045712975E0,-2.579772472E0,-9.370218962E-3,9.494286537E0
1.095712975E0,-2.571501970E0,5.094096996E-4,9.486194611E0
1.145712975E0,-2.582340717E0,1.108912379E-2,9.484195709E0
1.195712975E0,-2.578023911E0,-1.966686687E-3,9.493598938E0
1.245712975E0,-2.570244074E0,-1.387008838E-2,9.487709999E0
1.295712975E0,-2.577421665E0,-8.197562769E-3,9.493997574E0
1.345712975E0,-2.581007957E0,8.122775704E-3,9.484174728E0
1.395712975E0,-2.575818062E0,4.332054872E-3,9.491519928E0
1.445712975E0,-2.571074486E0,-3.932439256E-3,9.490554810E0
1.495712975E0,-2.576622009E0,-1.056021638E-2,9.492254257E0
1.545712975E0,-2.576173782E0,-7.720281370E-3,9.497210503E0
1.595712975E0,-2.579766750E0,5.696214270E-3,9.495382309E0
1.645712975E0,-2.575407982E0,3.579041455E-3,9.499385834E0
1.695712975E0,-2.571440458E0,-4.861048423E-3,9.485403061E0
1.745712975E0,-2.573153019E0,-2.735750517E-3,9.494048119E0
1.795712975E0,-2.579841137E0,-2.067111433E-3,9.497286797E0
1.845712975E0,-2.573460817E0,1.514220051E-2,9.489343643E0
1.895712975E0,-2.582481861E0,-6.493549328E-3,9.481443405E0
1.945712975E0,-2.557052612E0,1.764746755E-2,9.497452736E0
1.995712975E0,-2.581167698E0,-1.230650488E-2,9.497104645E0
2.045712975E0,-2.580309391E0,-7.170770783E-3,9.494945526E0
2.095712975E0,-2.578392029E0,2.252994571E-3,9.492742538E0
2.145712975E0,-2.572404385E0,3.350581042E-3,9.500492096E0
2.195712975E0,-2.572737694E0,-6.531790365E-3,9.498407364E0
2.245712975E0,-2.575408459E0,-2.967677545E-3,9.492069244E0
2.295712975E0,-2.581452131E0,-1.652354840E-3,9.496123314E0
2.345712975E0,-2.593891382E0,8.828941733E-3,9.483486176E0
2.395712975E0,-2.575457573E0,-9.607104585E-4,9.471406937E0
2.445712975E0,-2.551163197E0,-1.169475354E-2,9.547233582E0
2.495712975E0,-2.635154247E0,5.802419968E-3,9.476303101E0
2.545712975E0,-2.614296913E0,-6.794826686E-2,9.474157333E0
2.595712975E0,-2.554680347E0,-8.927663788E-3,9.525283813E0
2.645712975E0,-2.519462824E0,8.240807056E-2,9.491860390E0
2.695712975E0,-2.504323959E0,-5.397678167E-2,9.555511475E0
2.745712975E0,-2.651504517E0,-4.509202391E-2,9.436739922E0
2.795712975E0,-2.665518522E0,-1.615738310E-2,9.447902679E0
2.845712975E0,-2.608429432E0,6.490866095E-2,9.492406845E0
2.895712975E0,-2.501065254E0,4.679273814E-3,9.517870903E0
2.945712975E0,-2.491942406E0,-4.327246547E-2,9.502869606E0
2.995712975E0,-2.597415447E0,3.821327351E-3,9.500663757E0
3.045712975E0,-2.605476379E0,1.213133708E-2,9.477384567E0
3.095712975E0,-4.601691246E0,-4.801642895E-2,9.895194054E0
3.145712975E0,-4.911293507E0,2.015452087E-1,1.009266853E1
3.195712975E0,-1.271785617E0,1.068391874E-1,9.437255859E0
3.245712975E0,7.900494337E-1,-1.130775094E0,8.978832245E0
3.295712975E0,2.425023079E0,-1.764129251E-1,8.267305374E0
3.345712975E0,4.193089008E0,4.447066188E-1,9.439023972E0
3.395712975E0,2.695059538E0,-2.476941049E-1,9.652625084E0
3.445712975E0,2.805553079E-1,-4.282034636E-1,9.737017632E0
3.495712975E0,-1.731836081E0,3.743422925E-1,1.070192146E1
3.545712975E0,-6.328883171E-1,-4.304853380E-1,1.061377907E1
3.595712975E0,5.876703858E-1,-5.763599277E-1,8.661175728E0
3.645712975E0,8.353275657E-1,9.224720299E-2,1.013692856E1
3.695712975E0,1.451347351E0,-1.457167566E-1,9.394357681E0
3.745712975E0,3.815875530E0,-3.220842481E-1,9.750513077E0
3.795712975E0,3.727027416E0,-1.611018419E0,1.132743073E1
3.845712975E0,3.100047588E0,-1.268432736E0,1.037998486E1
3.895712975E0,4.061671257E0,-1.454822540E0,9.515972137E0
3.945712975E0,3.068010330E0,-9.552708864E-1,8.621112823E0
3.995712975E0,3.712671757E0,-1.479777813E0,8.851719856E0
4.045712975E0,2.364256382E0,-1.259900093E0,8.991985321E0
4.095712975E0,1.763790846E0,-1.130454779E0,9.713834763E0
4.145712975E0,1.639807343E0,1.236983016E-1,9.460170746E0
4.195712975E0,3.142391205E0,5.150550604E-1,9.071748734E0
4.245712975E0,4.461588860E0,-3.988929391E-1,8.593427658E0
4.295712975E0,3.979178667E0,-7.590748668E-1,8.268054962E0
4.345712975E0,4.165497780E0,-7.886403799E-1,8.246503830E0
4.395712975E0,4.380357742E0,-8.741531372E-1,8.699412346E0
4.445712975E0,4.955438614E0,-2.147460878E-1,8.066517830E0
4.495712975E0,4.872591972E0,-4.146441519E-1,7.643069744E0
4.545712975E0,5.323628426E0,-6.358073354E-1,7.469452858E0
4.595712975E0,5.341056824E0,5.156497657E-2,6.905502319E0
4.645712975E0,4.488614082E0,-9.222344160E-1,1.022073841E1
4.695712975E0,4.847610950E0,1.306219220E0,6.978216171E0
4.745712975E0,5.857181072E0,1.958933830E0,6.929721832E0
4.795712975E0,6.083189011E0,2.567773342E0,7.254486084E0
4.845712975E0,5.940933228E0,2.462469578E0,7.137002945E0
4.895712975E0,5.697393417E0,1.186224461E0,7.392024994E0
4.945712975E0,6.129728794E0,6.091801524E-1,7.662306786E0
4.995712975E0,5.639539719E0,7.323136330E-1,7.640943527E0
5.045712975E0,5.458559036E0,2.175769955E-1,7.591768265E0
5.095712975E0,6.946903229E0,-6.651475430E-1,8.483937263E0
5.145712975E0,7.394616127E0,-1.115396500E0,9.062770844E0
5.195712975E0,7.380293846E0,-1.128378510E0,8.771833420E0
5.245712975E0,7.184186459E0,-9.465389252E-1,8.049047470E0
5.295712975E0,8.510013580E0,-9.834080935E-1,7.328368187E0
5.345712975E0,7.234662533E0,-4.616221189E-1,6.655494690E0
5.395712975E0,6.645017624E0,-5.459921956E-1,6.313452244E0
5.445712975E0,6.333502769E0,-8.308838606E-1,6.394824028E0
5.495712975E0,6.194594383E0,-7.638455629E-1,6.287094116E0
5.545712975E0,6.628894806E0,-4.738203287E-1,5.939589500E0
5.595712975E0,7.562627316E0,-7.051976323E-1,6.241189003E0
5.645712975E0,7.835093498E0,-8.460958600E-1,6.648688316E0
5.695712975E0,8.086158752E0,-8.469924927E-1,6.810210228E0
5.745712975E0,7.466017246E0,-3.458512127E-1,6.515441895E0
5.795712975E0,6.646570206E0,1.427382529E-1,6.191806793E0
5.845712975E0,6.225590706E0,2.456102967E-1,5.793181419E0
5.895712975E0,6.065453529E0,2.672279775E-1,5.385966778E0
5.945712975E0,6.198876858E0,5.718057975E-2,4.844037533E0
5.995712975E0,6.310003281E0,5.808302164E-1,5.777762413E0
6.045712975E0,8.018513680E0,3.023648262E-1,6.163302422E0
6.095712975E0,8.228363991E0,3.369878531E-1,6.865311623E0
6.145712975E0,7.430795193E0,-7.990311831E-3,6.548032761E0
6.195712975E0,7.958841324E0,-7.260945439E-2,6.318557739E0
6.245712975E0,8.023199081E0,3.805689812E-1,6.362845421E0
6.295712975E0,8.138830185E0,2.110276669E-1,6.718936920E0
6.345712975E0,7.561104774E0,7.469658554E-2,6.438873291E0
6.395712975E0,7.840978622E0,-1.079850435E0,6.893087864E0
6.445712975E0,8.021085739E0,-1.226507306E0,6.898660660E0
6.495712975E0,7.377932549E0,-1.033668041E0,6.448089123E0
6.545712975E0,6.387862206E0,-6.891233921E-1,6.542486191E0
6.595712975E0,6.449195862E0,-5.499883890E-1,6.643234253E0
6.645712975E0,7.306007385E0,-1.944400191E0,7.476104736E0
6.695712975E0,7.273290634E0,-8.794410229E-1,6.815297127E0
6.745712975E0,7.205443382E0,-3.808646798E-1,6.318550110E0
6.795712975E0,7.256291866E0,-6.560044289E-1,6.707766533E0
6.845712975E0,6.846652031E0,-4.887622893E-1,6.822278500E0
6.895712975E0,7.467780113E0,-4.163296819E-1,6.696035385E0
6.945712975E0,7.030773163E0,4.485636204E-2,6.087034225E0
6.995712975E0,6.738801003E0,3.830742463E-2,6.189061642E0
7.045712975E0,5.964555740E0,2.026432008E-1,6.638665199E0
7.095712975E0,6.870662212E0,6.992679834E-2,6.645661354E0
7.145712975E0,8.649803162E0,-3.465442955E-1,6.695419312E0
7.195712975E0,8.813823700E0,-7.461615205E-1,7.196619511E0
7.245712975E0,8.274541855E0,-9.820575714E-1,6.802260876E0
7.295712975E0,7.827247620E0,-1.219479322E0,7.054592133E0
7.345712975E0,7.768231392E0,-5.338128209E-1,6.612363815E0
7.395712975E0,8.412147522E0,-5.275535583E-1,7.217035770E0
7.445712975E0,7.965788841E0,-4.295724332E-1,6.995099068E0
7.495712975E0,8.153823853E0,-5.111269653E-2,6.409615993E0
7.545712975E0,8.481707573E0,-3.590950668E-1,6.178290367E0
7.595712975E0,5.007245064E0,-4.652063251E-1,5.800989151E0
7.645712975E0,2.475120544E0,2.028936446E-1,5.237930298E0
7.695712975E0,6.097178459E0,-6.893812418E-1,5.586338997E0
7.745712975E0,6.243380070E0,-1.889548004E-1,4.804985523E0
7.795712975E0,6.806049347E0,9.062811732E-1,5.272891045E0
7.845712975E0,8.265258789E0,-8.272804022E-1,6.546059132E0
7.895712975E0,6.532458305E0,-2.220445156E0,7.744682312E0
7.945712975E0,1.066292191E1,-2.867568970E0,8.676998138E0
7.995712975E0,1.082184982E1,-7.412167788E-1,7.308573723E0
8.045712975E0,8.911442757E0,1.414949656E0,5.402138710E0
8.095712975E0,3.910204411E0,1.569545269E0,5.041045189E0
8.145712975E0,4.791224003E0,2.301061004E-1,6.274983406E0
8.195712975E0,9.279079437E0,-1.717573404E0,6.982807636E0
8.245712975E0,1.162704468E1,-2.283173084E0,7.857771873E0
8.295712975E0,7.279260635E0,-1.249088407E0,6.965992928E0
8.345712975E0,7.240150452E0,5.022741556E-1,6.098505974E0
8.395712975E0,8.727252960E0,9.275028110E-1,5.471646309E0
8.445712975E0,6.654994011E0,3.757091761E-1,5.394258022E0
8.495712975E0,6.992882729E0,-4.182993770E-1,5.994998455E0
8.545712975E0,7.948157310E0,-9.458808899E-1,6.857231140E0
8.595712975E0,8.191990852E0,-7.231219411E-1,6.811248779E0
8.645712975E0,8.577444077E0,1.778772920E-1,6.552927017E0
8.695712975E0,7.640352249E0,9.561271667E-1,6.343811035E0
8.745712975E0,6.737673759E0,5.396685600E-1,5.589211464E0
8.795712975E0,5.746260643E0,-2.090871036E-1,4.814482212E0
8.845712975E0,6.549611092E0,-5.931866169E-1,5.345537663E0
8.895712975E0,6.529984474E0,-5.509039164E-1,5.501555443E0
8.945712975E0,6.991962433E0,-3.927288949E-2,5.808302879E0
8.995712975E0,7.898104668E0,5.954127312E-1,6.483463287E0
9.045712975E0,6.168157578E0,6.037031412E-1,5.259510040E0
9.095712975E0,5.245909691E0,2.962507010E-1,4.736454487E0
9.145712975E0,8.766861916E0,-1.794682741E-1,8.013621330E0
9.195712975E0,9.485308647E0,-6.895399094E-1,7.733821869E0
9.245712975E0,1.000964165E1,-3.829033673E-1,8.197774887E0
9.295712975E0,7.276315689E0,3.167433739E-1,6.124611378E0
9.345712975E0,6.587271690E0,5.738474727E-1,5.612437248E0
9.395712975E0,5.953578949E0,2.537676990E-1,5.182363510E0
9.445712975E0,4.698118210E0,-2.345389277E-1,4.082223415E0
9.495712975E0,6.533000946E0,-5.714036226E-1,5.721773148E0
9.545712975E0,8.361860275E0,-5.886963010E-1,7.041593552E0
9.595712975E0,1.022601318E1,-2.555331886E-1,7.899485588E0
9.645712975E0,7.531805992E0,2.824250758E-1,6.696986198E0
9.695712975E0,4.754324913E0,4.715428352E-1,4.820775986E0
9.745712975E0,6.143574238E0,5.242912769E-1,5.668668747E0
9.795712975E0,8.096461296E0,1.567646414E-1,6.509202003E0
9.845712975E0,8.547441483E0,-5.670872331E-1,6.875482559E0
9.895712975E0,7.891945362E0,-9.018392563E-1,6.672367096E0
9.945712975E0,6.846402168E0,-6.689008474E-1,5.733042240E0
9.995712975E0,7.837939262E0,-4.107309878E-2,6.610136986E0
1.004571298E1,8.130750656E0,7.119903564E-1,6.750578880E0
1.009571298E1,7.539474487E0,7.561131120E-1,6.481949329E0
1.014571298E1,6.970403671E0,1.990781873E-1,6.063748360E0
1.019571298E1,7.905091763E0,-3.858531713E-1,6.443666935E0
1.024571298E1,1.012787533E1,-6.815847158E-1,8.165739059E0
1.029571298E1,8.234515190E0,-2.539453804E-1,6.730941296E0
1.034571298E1,5.234640121E0,2.144531608E-1,4.725283623E0
1.039571298E1,3.941835403E0,4.263784289E-1,3.891749859E0
1.044571298E1,5.144877911E0,5.077557564E-1,4.761994839E0
1.049571298E1,1.018887901E1,3.462909460E-1,8.097372055E0
1.054571298E1,1.116170025E1,-3.429338634E-1,8.916649818E0
1.059571298E1,8.493984222E0,-5.985656977E-1,7.390316963E0
1.064571298E1,6.432209015E0,-3.821751773E-1,5.973965645E0
1.069571298E1,7.941982269E0,8.633513749E-2,6.881698608E0
1.074571298E1,8.936557770E0,4.583392739E-1,6.897329807E0
1.079571298E1,6.318588257E0,3.405328691E-1,5.416549683E0
1.084571298E1,6.211639404E0,5.820374936E-2,5.878447533E0
1.089571298E1,6.796250820E0,-2.915732265E-1,5.633397102E0
1.094571298E1,7.544341087E0,-4.112131000E-1,6.127366543E0
1.099571298E1,8.446645737E0,-2.776288092E-1,7.471634865E0
1.104571298E1,7.130298615E0,1.311102062E-1,6.293168068E0
1.109571298E1,7.779245377E0,3.575084805E-1,6.494224548E0
1.114571298E1,7.957643509E0,2.622081935E-1,6.774284840E0
1.119571298E1,7.740435600E0,-1.486009359E-1,6.912495613E0
1.124571298E1,7.752663612E0,-4.268731475E-1,6.658339024E0
1.129571298E1,7.568486214E0,-4.188167751E-1,6.184028625E0
1.134571298E1,6.260802746E0,-2.141745090E-1,5.383477211E0
1.139571298E1,7.629969597E0,-3.194371983E-2,6.754702568E0
1.144571298E1,9.219017029E0,1.496908367E-1,7.603706360E0
1.149571298E1,8.147153854E0,6.761182100E-2,6.871545792E0
1.154571298E1,6.579135895E0,8.221531510E-1,5.805906773E0
1.159571298E1,8.124497414E0,8.581199646E-1,6.614618301E0
1.164571298E1,7.490935326E0,-4.116269052E-1,6.592870712E0
1.169571298E1,6.971417427E0,-1.461726308E0,6.872471809E0
1.174571298E1,5.536066532E0,1.041719794E0,6.229143143E0
1.179571298E1,6.671319962E0,4.946427792E-2,5.919353485E0
1.184571298E1,7.299187660E0,1.561304033E-1,6.113626480E0
1.189571298E1,7.178900719E0,1.218977123E-1,5.598794937E0
1.194571298E1,6.915008068E0,1.298208833E-1,4.982516289E0
1.199571298E1,7.589212418E0,1.174732447E-1,3.677387476E0
1.204571298E1,1.102210236E1,-8.871459961E-1,1.323233843E-1
1.209571298E1,1.341601944E1,-3.099325895E-1,1.531455994E0
1.214571298E1,7.663340569E0,-7.304009795E-1,2.752180576E0
1.219571298E1,1.130518150E1,2.020363361E-1,1.165816545E0
1.224571298E1,8.236001968E0,-6.910480559E-2,2.337981701E0
1.229571298E1,8.834594727E0,-7.641334832E-2,1.860504985E0
1.234571298E1,8.202195168E0,-3.268271089E-1,1.774738312E0
1.239571298E1,9.801486969E0,-1.766495407E-1,3.181846738E-1
1.244571298E1,1.387537956E1,1.363311172E0,-1.147380590E0
1.249571298E1,1.119580078E1,-6.919182539E-1,-1.184608579E0
1.254571298E1,8.331954956E0,2.745481133E-1,1.568500996E-1
1.259571298E1,1.087682915E1,-4.304894209E-1,-3.826971352E-1
1.264571298E1,9.402826309E0,-7.976797223E-2,-1.425457895E-1
1.269571298E1,9.621839523E0,-1.190993413E-1,-1.496068835E-1
1.274571298E1,1.000755501E1,-2.672830224E-1,-2.811600566E-1
1.279571298E1,9.763055801E0,-1.966633052E-1,-2.943379283E-1
1.284571298E1,9.767335892E0,-1.979469955E-1,-2.700324655E-1
1.289571298E1,9.773971558E0,-2.001669407E-1,-2.701994777E-1
1.294571298E1,9.793270111E0,-2.057193518E-1,-2.674772739E-1
1.299571298E1,9.746801376E0,-1.930966973E-1,-2.651837468E-1
1.304571298E1,9.744631767E0,-1.922374964E-1,-2.645648122E-1
1.309571298E1,9.764106750E0,-1.983901858E-1,-2.693524957E-1
1.314571298E1,9.765915871E0,-1.966674328E-1,-2.708283663E-1
1.319571298E1,9.785295486E0,-2.052005827E-1,-2.658344507E-1
1.324571298E1,9.761343002E0,-1.953379959E-1,-2.639308572E-1
1.329571298E1,9.784972191E0,-2.010357529E-1,-2.645794749E-1
1.334571298E1,9.782974243E0,-2.007076442E-1,-2.675843239E-1
1.339571298E1,9.775363922E0,-1.987041086E-1,-2.695681751E-1
1.344571298E1,9.745327950E0,-1.940872669E-1,-2.691126168E-1
1.349571298E1,9.877326965E0,-2.147647440E-1,-2.711043358E-1
1.354571298E1,9.752854347E0,-1.922332942E-1,-2.694796324E-1
1.359571298E1,9.979790688E0,-2.477287352E-1,-3.153234124E-1
1.364571298E1,1.051269150E1,-3.072150648E-1,-4.267366529E-1
1.369571298E1,8.277460098E0,-6.528049707E-1,6.904819608E-1
1.374571298E1,9.742638588E0,2.154414803E-1,-3.225328624E-1
1.379571298E1,9.754242897E0,4.994854927E-1,-4.287350476E-1
1.384571298E1,9.763430595E0,-5.444338545E-2,-1.023993045E-1
1.389571298E1,9.870922089E0,-1.099103615E-1,-1.789435893E-1
1.394571298E1,9.764814377E0,-1.049657241E-1,-1.550967991E-1
1.399571298E1,9.395360947E0,-7.176551968E-3,-5.948498473E-2
1.404571298E1,9.996099472E0,-2.445839792E-1,-3.065533638E-1
1.409571298E1,1.000400543E1,-2.348228991E-1,-2.699708045E-1
1.414571298E1,9.761679649E0,-1.726570874E-1,-2.273886353E-1
1.419571298E1,9.781127930E0,-1.729497612E-1,-2.340157032E-1
1.424571298E1,9.779197693E0,-1.756956577E-1,-2.350991815E-1
1.429571298E1,9.772545815E0,-1.728225052E-1,-2.358121276E-1
1.434571298E1,9.768660545E0,-1.726388037E-1,-2.298469990E-1
1.439571298E1,9.779324532E0,-1.815402508E-1,-2.348999977E-1
1.444571298E1,9.774602890E0,-1.755705178E-1,-2.326313108E-1
1.449571298E1,9.773127556E0,-1.730282307E-1,-2.384603918E-1
1.454571298E1,9.774628639E0,-1.729674041E-1,-2.391010821E-1
1.459571298E1,9.779546738E0,-1.733810306E-1,-2.293145061E-1
1.464571298E1,9.775625229E0,-1.747058034E-1,-2.327537090E-1
1.469571298E1,9.776771545E0,-1.741981208E-1,-2.370886207E-1
1.474571298E1,9.777076721E0,-1.747007370E-1,-2.348122299E-1
1.479571298E1,9.776510239E0,-1.736114621E-1,-2.344667315E-1
1.484571298E1,9.777074814E0,-1.755970716E-1,-2.419303060E-1
1.489571298E1,9.776491165E0,-1.726165116E-1,-2.303836644E-1
1.494571298E1,9.773386955E0,-1.747058034E-1,-2.350647151E-1
1.499571298E1,9.777130127E0,-1.750115007E-1,-2.343673408E-1
1.504571298E1,9.776725769E0,-1.778693497E-1,-2.344327122E-1
1.509571298E1,9.778939247E0,-1.751936972E-1,-2.289015353E-1
1.514571298E1,9.775362015E0,-1.771012694E-1,-2.260405123E-1
1.519571298E1,9.773074150E0,-1.756962687E-1,-2.360568643E-1
1.524571298E1,9.774202347E0,-1.760702431E-1,-2.334437966E-1
1.529571298E1,9.774814606E0,-1.750558615E-1,-2.363895327E-1
1.534571298E1,9.777819633E0,-1.762749851E-1,-2.324803919E-1
1.539571298E1,9.776989937E0,-1.719873846E-1,-2.313116342E-1
1.544571298E1,9.774000168E0,-1.747058034E-1,-2.348292023E-1
1.549571298E1,9.776663780E0,-1.750044674E-1,-2.388033271E-1
1.554571298E1,9.779619217E0,-1.776710749E-1,-2.313119918E-1
1.559571298E1,9.776675224E0,-1.762547493E-1,-2.367478013E-1
1.564571298E1,9.778488159E0,-1.756341159E-1,-2.365255505E-1
1.569571298E1,9.777864456E0,-1.741176546E-1,-2.353574932E-1
1.574571298E1,9.775056839E0,-1.726157963E-1,-2.363657802E-1
1.579571298E1,9.780176163E0,-1.772428006E-1,-2.284810841E-1
1.584571298E1,9.773685455E0,-1.747317910E-1,-2.256448120E-1
1.589571298E1,9.774467468E0,-1.764055341E-1,-2.332187593E-1
1.594571298E1,9.777473450E0,-1.748157740E-1,-2.323794812E-1
1.599571298E1,9.775054932E0,-1.747322977E-1,-2.391228080E-1
1.604571298E1,9.776858330E0,-1.782990098E-1,-2.340048254E-1
1.609571298E1,9.776527405E0,-1.745638251E-1,-2.430241704E-1
1.614571298E1,9.773074150E0,-1.733195484E-1,-2.387493849E-1
1.619571298E1,9.773773193E0,-1.737837344E-1,-2.317510843E-1
1.624571298E1,9.780929565E0,-1.776851863E-1,-2.311565578E-1
1.629571298E1,9.775688171E0,-1.730090231E-1,-2.369475961E-1
1.634571298E1,9.775991440E0,-1.753818393E-1,-2.292568684E-1
1.639571298E1,9.774949074E0,-1.723757535E-1,-2.343746424E-1
1.644571298E1,9.777725220E0,-1.737123132E-1,-2.389964908E-1
1.649571298E1,9.774856567E0,-1.762471497E-1,-2.385888696E-1
1.654571298E1,9.775152206E0,-1.740824580E-1,-2.370711267E-1
1.659571298E1,9.777572632E0,-1.770889461E-1,-2.298244089E-1
1.664571298E1,9.773061752E0,-1.756020337E-1,-2.343154550E-1
1.669571298E1,9.771015167E0,-1.794967502E-1,-2.352552265E-1
1.674571298E1,9.779743195E0,-1.776567101E-1,-2.329403162E-1
1.679571298E1,9.777385712E0,-1.759825796E-1,-2.296741903E-1
1.684571298E1,9.774175644E0,-1.776091009E-1,-2.343360335E-1
1.689571298E1,9.774885178E0,-1.767568886E-1,-2.300912738E-1
1.694571298E1,9.778078079E0,-1.767279059E-1,-2.362637371E-1
1.699571298E1,9.772302628E0,-1.778093725E-1,-2.385769486E-1
1.704571298E1,9.775376320E0,-1.734144986E-1,-2.258837223E-1
1.709571298E1,9.777864456E0,-1.757841557E-1,-2.345733345E-1
1.714571298E1,9.776242256E0,-1.751308441E-1,-2.418437600E-1
1.719571298E1,9.773542404E0,-1.748836339E-1,-2.363937199E-1
1.724571298E1,9.778623581E0,-1.767946631E-1,-2.307569981E-1
1.729571298E1,9.774709702E0,-1.778203845E-1,-2.330712527E-1
1.734571298E1,9.774467468E0,-1.759670675E-1,-2.308445871E-1
1.739571298E1,9.776950836E0,-1.772104204E-1,-2.341596186E-1
1.744571298E1,9.776165009E0,-1.775740087E-1,-2.407130003E-1
1.749571298E1,9.777698517E0,-1.720026284E-1,-2.421906292E-1
1.754571298E1,9.775469780E0,-1.757939011E-1,-2.422472239E-1
1.759571298E1,9.775661469E0,-1.764891148E-1,-2.349774837E-1
1.764571298E1,9.775441170E0,-1.787990183E-1,-2.392074466E-1
1.769571298E1,9.777191162E0,-1.785469055E-1,-2.276016027E-1
1.774571298E1,9.776090622E0,-1.756321490E-1,-2.297732979E-1
1.779571298E1,9.777553558E0,-1.767942905E-1,-2.343101948E-1
1.784571298E1,9.771854401E0,-1.759270728E-1,-2.397329807E-1
1.789571298E1,9.777018547E0,-1.759035289E-1,-2.266289890E-1
1.794571298E1,9.781200409E0,-1.767946780E-1,-2.318919003E-1
1.799571298E1,9.776082993E0,-1.767947376E-1,-2.367526442E-1
1.804571298E1,9.776972771E0,-1.730768681E-1,-2.425147295E-1
1.809571298E1,9.776079178E0,-1.765131652E-1,-2.351439297E-1
1.814571298E1,9.776874542E0,-1.763178110E-1,-2.360368669E-1
1.819571298E1,9.776882172E0,-1.763086021E-1,-2.350106090E-1
1.824571298E1,9.777154922E0,-1.762607098E-1,-2.395331413E-1
1.829571298E1,9.771135330E0,-1.754685044E-1,-2.371086180E-1
1.834571298E1,9.776189804E0,-1.754466593E-1,-2.320910394E-1
1.839571298E1,9.777277946E0,-1.751623303E-1,-2.440686226E-1
1.844571298E1,9.776338577E0,-1.741227508E-1,-2.359712869E-1
1.849571298E1,9.770572662E0,-1.763072312E-1,-2.316015959E-1
1.854571298E1,9.778673172E0,-1.785891354E-1,-2.391160131E-1
1.859571298E1,9.779287338E0,-1.788094938E-1,-2.299823165E-1
1.864571298E1,9.773075104E0,-1.731007695E-1,-2.342840135E-1
1.869571298E1,9.787571907E0,-1.758774519E-1,-2.352006435E-1
1.874571298E1,9.770952225E0,-1.731528789E-1,-2.371881306E-1
1.879571298E1,9.779275894E0,-1.764698029E-1,-2.376227975E-1
1.884571298E1,9.779083252E0,-1.782990098E-1,-2.311275303E-1
1.889571298E1,9.772769928E0,-1.759240478E-1,-2.328301072E-1
1.894571298E1,9.774278641E0,-1.776936948E-1,-2.301402986E-1
1.899571298E1,9.775953293E0,-1.743309945E-1,-2.289979458E-1
1.904571298E1,9.774950027E0,-1.768584400E-1,-2.380511910E-1
1.909571298E1,9.773103714E0,-1.728668511E-1,-2.426637411E-1
1.914571298E1,9.772291183E0,-1.700240076E-1,-2.430539727E-1
1.919571298E1,9.777809143E0,-1.759586632E-1,-2.404050231E-1
1.924571298E1,9.781066895E0,-1.768459678E-1,-2.413933575E-1
1.929571298E1,9.772902489E0,-1.709151566E-1,-2.407206595E-1
1.934571298E1,9.785833359E0,-1.756149828E-1,-2.354345024E-1
1.939571298E1,9.779815674E0,-1.746307909E-1,-2.322807014E-1
1.944571298E1,9.780225754E0,-1.746371388E-1,-2.366356701E-1
1.949571298E1,9.776855469E0,-1.756312847E-1,-2.362644970E-1
1.954571298E1,9.781415939E0,-1.743713170E-1,-2.370098233E-1
1.959571298E1,9.769506454E0,-1.728173643E-1,-2.335627377E-1
1.964571298E1,9.783962250E0,-1.798972189E-1,-2.344160974E-1
1.969571298E1,9.776972771E0,-1.761839092E-1,-2.365846634E-1
1.974571298E1,9.775001526E0,-1.764436960E-1,-2.390054911E-1
1.979571298E1,9.779436111E0,-1.778756678E-1,-2.362622768E-1
1.984571298E1,9.774578094E0,-1.757334173E-1,-2.350567877E-1
1.989571298E1,9.775469780E0,-1.761032939E-1,-2.300371230E-1
1.994571298E1,9.775695801E0,-1.761697531E-1,-2.377846241E-1
1.999571298E1,9.774577141E0,-1.732256860E-1,-2.283832729E-1
2.004571298E1,9.774288177E0,-1.738151014E-1,-2.352287471E-1
2.009571298E1,9.775457382E0,-1.740951538E-1,-2.331232876E-1
2.014571298E1,9.779307365E0,-1.746935546E-1,-2.322199047E-1
2.019571298E1,9.776751518E0,-1.734717488E-1,-2.340765893E-1
2.024571298E1,9.776361465E0,-1.771377921E-1,-2.380870283E-1
2.029571298E1,9.777315140E0,-1.764536798E-1,-2.342732102E-1
2.034571298E1,9.774947166E0,-1.743991971E-1,-2.319407612E-1
2.039571298E1,9.776884079E0,-1.762726307E-1,-2.358628362E-1
2.044571298E1,9.772359848E0,-1.768349260E-1,-2.394062281E-1
2.049571298E1,9.780157089E0,-1.764129996E-1,-2.337110043E-1
2.054571298E1,9.775659561E0,-1.746308506E-1,-2.325934172E-1
2.059571298E1,9.775469780E0,-1.759035289E-1,-2.322688848E-1
2.064571298E1,9.776361465E0,-1.772426665E-1,-2.374139726E-1
2.069571298E1,9.775469780E0,-1.765171289E-1,-2.290386558E-1
2.074571298E1,9.774044037E0,-1.738452911E-1,-2.326323688E-1
2.079571298E1,9.776586533E0,-1.769900918E-1,-2.363716066E-1
2.084571298E1,9.776362419E0,-1.754043996E-1,-2.414085865E-1
2.089571298E1,9.776144028E0,-1.755100191E-1,-2.406486571E-1
2.094571298E1,9.773965836E0,-1.764452457E-1,-2.300696671E-1
2.099571298E1,9.775103569E0,-1.757851839E-1,-2.348616123E-1
2.104571298E1,9.777467728E0,-1.759035289E-1,-2.328979224E-1
2.109571298E1,9.775876999E0,-1.782303154E-1,-2.335972190E-1
2.114571298E1,9.774000168E0,-1.764821112E-1,-2.349483669E-1
2.119571298E1,9.774858475E0,-1.762167066E-1,-2.310766876E-1
2.124571298E1,9.776080132E0,-1.758895218E-1,-2.349040657E-1
2.129571298E1,9.779044151E0,-1.770649552E-1,-2.414761186E-1
2.134571298E1,9.777603149E0,-1.735080630E-1,-2.376038432E-1
2.139571298E1,9.778713226E0,-1.725718528E-1,-2.388606817E-1
2.144571298E1,9.775976181E0,-1.757114828E-1,-2.361617684E-1
2.149571298E1,9.772886276E0,-1.781369448E-1,-2.414388657E-1
2.154571298E1,9.774785995E0,-1.778236628E-1,-2.307021469E-1
2.159571298E1,9.777334213E0,-1.746097952E-1,-2.315365076E-1
2.164571298E1,9.778755188E0,-1.770735979E-1,-2.263541669E-1
2.169571298E1,9.777983665E0,-1.748290658E-1,-2.328051776E-1
2.174571298E1,9.776238441E0,-1.772491336E-1,-2.347939610E-1
2.179571298E1,9.773380280E0,-1.750214398E-1,-2.319588363E-1
2.184571298E1,9.778905869E0,-1.743997335E-1,-2.360293567E-1
2.189571298E1,9.777016640E0,-1.759035289E-1,-2.349396050E-1
2.194571298E1,9.771869659E0,-1.749427021E-1,-2.331801057E-1
2.199571298E1,9.773851395E0,-1.747058034E-1,-2.364152074E-1
2.204571298E1,9.778389931E0,-1.784214377E-1,-2.357083559E-1
2.209571298E1,9.781151772E0,-1.800157428E-1,-2.387945354E-1
2.214571298E1,9.777864456E0,-1.752408296E-1,-2.296876609E-1
2.219571298E1,9.773121834E0,-1.758560389E-1,-2.369837612E-1
2.224571298E1,9.772439957E0,-1.752433181E-1,-2.293074727E-1
2.229571298E1,9.777252197E0,-1.752913594E-1,-2.301821709E-1
2.234571298E1,9.775747299E0,-1.756242216E-1,-2.325553596E-1
2.239571298E1,9.777866364E0,-1.776892841E-1,-2.286522985E-1
2.244571298E1,9.776641846E0,-1.749853343E-1,-2.421057522E-1
2.249571298E1,9.773965836E0,-1.779131889E-1,-2.370104790E-1
2.254571298E1,9.774909973E0,-1.743496656E-1,-2.406823933E-1
2.259571298E1,9.774578094E0,-1.759035289E-1,-2.368543148E-1
2.264571298E1,9.776361465E0,-1.759807169E-1,-2.383640260E-1
2.269571298E1,9.777739525E0,-1.779157221E-1,-2.358894199E-1
2.274571298E1,9.780870438E0,-1.740166545E-1,-2.333394289E-1
2.279571298E1,9.774784088E0,-1.752180159E-1,-2.383097708E-1
2.284571298E1,9.774036407E0,-1.756249964E-1,-2.405591905E-1
2.289571298E1,9.774839401E0,-1.739630252E-1,-2.328492701E-1
2.294571298E1,9.776971817E0,-1.751489937E-1,-2.329685241E-1
2.299571298E1,9.776049614E0,-1.767956913E-1,-2.287826240E-1
2.304571298E1,9.777003288E0,-1.717912555E-1,-2.339356244E-1
2.309571298E1,9.773965836E0,-1.749276221E-1,-2.426091135E-1
2.314571298E1,9.771081924E0,-1.731040478E-1,-2.412008345E-1
2.319571298E1,9.772119522E0,-1.734097153E-1,-2.385857999E-1
2.324571298E1,9.777626038E0,-1.775441170E-1,-2.397851795E-1
2.329571298E1,9.775885582E0,-1.755554974E-1,-2.318713367E-1
2.334571298E1,9.774228096E0,-1.756200790E-1,-2.339838445E-1
2.339571298E1,9.775142670E0,-1.747297198E-1,-2.347661555E-1
2.344571298E1,9.777292252E0,-1.756563187E-1,-2.346933037E-1
2.349571298E1,9.775430679E0,-1.722987294E-1,-2.379014194E-1
2.354571298E1,9.773063660E0,-1.714257598E-1,-2.355252802E-1
2.359571298E1,9.778146744E0,-1.753634214E-1,-2.369959354E-1
2.364571298E1,9.778514862E0,-1.752851605E-1,-2.377566099E-1
2.369571298E1,9.778511047E0,-1.759035289E-1,-2.355978191E-1
2.374571298E1,9.781211853E0,-1.736929417E-1,-2.320861667E-1
2.379571298E1,9.777095795E0,-1.742767096E-1,-2.333681285E-1
2.384571298E1,9.775522232E0,-1.744008213E-1,-2.326714694E-1
2.389571298E1,9.778436661E0,-1.744829118E-1,-2.311148047E-1
2.394571298E1,9.784008026E0,-1.701835692E-1,-2.425011396E-1
2.399571298E1,9.784273148E0,-1.672672033E-1,-2.419172525E-1
2.404571298E1,9.777925491E0,-1.685185134E-1,-2.397882342E-1
2.409571298E1,9.770820618E0,-1.712546051E-1,-2.368784249E-1
2.414571298E1,9.777111053E0,-1.749837399E-1,-2.311142832E-1
2.419571298E1,9.780477524E0,-1.745017469E-1,-2.339904159E-1
2.424571298E1,9.784671783E0,-1.715733707E-1,-2.373162657E-1
2.429571298E1,9.774185181E0,-1.726163924E-1,-2.362076044E-1
2.434571298E1,9.775939941E0,-1.761199236E-1,-2.304355204E-1
2.439571298E1,9.776665688E0,-1.772535443E-1,-2.296071053E-1
2.444571298E1,9.773736954E0,-1.749479920E-1,-2.325253189E-1
2.449571298E1,9.776154518E0,-1.759035289E-1,-2.325907648E-1
2.454571298E1,9.775199890E0,-1.800821573E-1,-2.308962941E-1
2.459571298E1,9.776361465E0,-1.741412580E-1,-2.375401855E-1
2.464571298E1,9.776655197E0,-1.717003286E-1,-2.322765291E-1
2.469571298E1,9.776376724E0,-1.759201437E-1,-2.355196178E-1
2.474571298E1,9.776685715E0,-1.758674681E-1,-2.370244563E-1
2.479571298E1,9.776926041E0,-1.725694388E-1,-2.367298603E-1
2.484571298E1,9.777166367E0,-1.762525290E-1,-2.399244457E-1
2.489571298E1,9.774032593E0,-1.782326251E-1,-2.413897514E-1
2.494571298E1,9.777864456E0,-1.775559187E-1,-2.343932241E-1
2.499571298E1,9.774112701E0,-1.772603691E-1,-2.340412736E-1
2.504571298E1,9.775469780E0,-1.759035289E-1,-2.320939004E-1
2.509571298E1,9.777256012E0,-1.750105172E-1,-2.273093164E-1
2.514571298E1,9.775239944E0,-1.752497554E-1,-2.409545183E-1
2.519571298E1,9.777441978E0,-1.751889586E-1,-2.355200052E-1
2.524571298E1,9.775308609E0,-1.757578105E-1,-2.411861420E-1
2.529571298E1,9.777425766E0,-1.775003076E-1,-2.354284823E-1
2.534571298E1,9.774577141E0,-1.731636226E-1,-2.419524193E-1
2.539571298E1,9.776556969E0,-1.711125821E-1,-2.354464680E-1
2.544571298E1,9.779756546E0,-1.753996760E-1,-2.328250706E-1
2.549571298E1,9.776748657E0,-1.726164222E-1,-2.369642556E-1
2.554571298E1,9.775636673E0,-1.745674312E-1,-2.401842922E-1
2.559571298E1,9.774162292E0,-1.742336154E-1,-2.319668531E-1
2.564571298E1,9.781599045E0,-1.748474240E-1,-2.289320976E-1
2.569571298E1,9.777587891E0,-1.740652323E-1,-2.368984818E-1
2.574571298E1,9.775497437E0,-1.746446490E-1,-2.348779440E-1
2.579571298E1,9.775168419E0,-1.765147299E-1,-2.322968245E-1
2.584571298E1,9.779050827E0,-1.746842265E-1,-2.379500568E-1
2.589571298E1,9.775753021E0,-1.753132045E-1,-2.358175963E-1
2.594571298E1,9.778121948E0,-1.728734225E-1,-2.381365597E-1
2.599571298E1,9.776618958E0,-1.765870452E-1,-2.400893867E-1
2.604571298E1,9.775238037E0,-1.767468154E-1,-2.369989753E-1
2.609571298E1,9.775542259E0,-1.759035289E-1,-2.402610481E-1
2.614571298E1,9.776157379E0,-1.752159148E-1,-2.357859015E-1
2.619571298E1,9.777761459E0,-1.756984293E-1,-2.366249561E-1
2.624571298E1,9.777074814E0,-1.744005978E-1,-2.314036638E-1
2.629571298E1,9.775774956E0,-1.767426729E-1,-2.301298380E-1
2.634571298E1,9.777126312E0,-1.784234941E-1,-2.336943448E-1
2.639571298E1,9.776512146E0,-1.770993471E-1,-2.347682863E-1
2.644571298E1,9.773685455E0,-1.733531058E-1,-2.389788479E-1
2.649571298E1,9.777918816E0,-1.754190028E-1,-2.340821028E-1
2.654571298E1,9.776004791E0,-1.720047891E-1,-2.368810922E-1
2.659571298E1,9.776768684E0,-1.741941571E-1,-2.328278720E-1
2.664571298E1,9.781969070E0,-1.754964590E-1,-2.329631448E-1
2.669571298E1,9.774065018E0,-1.747058034E-1,-2.298891842E-1
2.674571298E1,9.778524399E0,-1.750599593E-1,-2.354070544E-1
2.679571298E1,9.774110794E0,-1.761127710E-1,-2.389551848E-1
2.684571298E1,9.776596069E0,-1.774522066E-1,-2.380692363E-1
2.689571298E1,9.777212143E0,-1.779708266E-1,-2.419081926E-1
2.694571298E1,9.777862549E0,-1.741194576E-1,-2.322196066E-1
2.699571298E1,9.777555466E0,-1.735140532E-1,-2.361245155E-1
2.704571298E1,9.780944824E0,-1.740893424E-1,-2.394696772E-1
2.709571298E1,9.778419495E0,-1.749549508E-1,-2.370671034E-1
2.714571298E1,9.776416779E0,-1.738456637E-1,-2.336029708E-1
2.719571298E1,9.777755737E0,-1.724745482E-1,-2.293229699E-1
2.724571298E1,9.775384903E0,-1.759035289E-1,-2.337218821E-1
2.729571298E1,9.779369354E0,-1.770168543E-1,-2.341138721E-1
2.734571298E1,9.777364731E0,-1.750105619E-1,-2.381210476E-1
2.739571298E1,9.775403976E0,-1.757059842E-1,-2.345021665E-1
2.744571298E1,9.776292801E0,-1.756338179E-1,-2.367394269E-1
2.749571298E1,9.774235725E0,-1.778568029E-1,-2.393186092E-1
2.754571298E1,9.773523331E0,-1.769575477E-1,-2.335909605E-1
2.759571298E1,9.775469780E0,-1.753336340E-1,-2.371547818E-1
2.764571298E1,9.777438164E0,-1.754380465E-1,-2.411328256E-1
2.769571298E1,9.776973724E0,-1.745195985E-1,-2.324699163E-1
2.774571298E1,9.780967712E0,-1.743996143E-1,-2.350434959E-1
2.779571298E1,9.778328896E0,-1.751571894E-1,-2.337230593E-1
2.784571298E1,9.776362419E0,-1.806944907E-1,-2.319374681E-1
2.789571298E1,9.774580002E0,-1.729605496E-1,-2.354337573E-1
2.794571298E1,9.777791023E0,-1.754864454E-1,-2.359968722E-1
2.799571298E1,9.776362419E0,-1.747933179E-1,-2.400467396E-1
2.804571298E1,9.774577141E0,-1.743700057E-1,-2.375592291E-1
2.809571298E1,9.778756142E0,-1.762163043E-1,-2.295436263E-1
2.814571298E1,9.777864456E0,-1.734981090E-1,-2.375558019E-1
2.819571298E1,9.776351929E0,-1.735176444E-1,-2.293139100E-1
2.824571298E1,9.777864456E0,-1.734696925E-1,-2.341538668E-1
2.829571298E1,9.778717041E0,-1.741973758E-1,-2.337619364E-1
2.834571298E1,9.775774956E0,-1.759667844E-1,-2.368846089E-1
2.839571298E1,9.778539658E0,-1.749490649E-1,-2.313275784E-1
2.844571298E1,9.778043747E0,-1.727055609E-1,-2.335291505E-1
2.849571298E1,9.779560089E0,-1.745022535E-1,-2.328062654E-1
2.854571298E1,9.777709961E0,-1.765278578E-1,-2.371970415E-1
2.859571298E1,9.774857521E0,-1.751757115E-1,-2.350099981E-1
2.864571298E1,9.777536392E0,-1.760227084E-1,-2.332758158E-1
2.869571298E1,9.776220322E0,-1.791889966E-1,-2.356508672E-1
2.874571298E1,9.775829315E0,-1.748450100E-1,-2.311020195E-1
2.879571298E1,9.777921677E0,-1.759035289E-1,-2.335010171E-1
2.884571298E1,9.776473045E0,-1.769071221E-1,-2.408208549E-1
2.889571298E1,9.777057648E0,-1.767100394E-1,-2.398233265E-1
2.894571298E1,9.774930954E0,-1.771012694E-1,-2.436592579E-1
2.899571298E1,9.777704239E0,-1.758448780E-1,-2.362660766E-1
2.904571298E1,9.772241592E0,-1.757153571E-1,-2.380422652E-1
2.909571298E1,9.777219772E0,-1.752922982E-1,-2.379364073E-1
2.914571298E1,9.776462555E0,-1.747058034E-1,-2.332728654E-1
2.919571298E1,9.776973724E0,-1.767943352E-1,-2.364024222E-1
2.924571298E1,9.778453827E0,-1.770951599E-1,-2.352095246E-1
2.929571298E1,9.776683807E0,-1.759035289E-1,-2.352052927E-1
2.934571298E1,9.775144577E0,-1.746851206E-1,-2.330310643E-1
2.939571298E1,9.776729584E0,-1.753360182E-1,-2.329561710E-1
2.944571298E1,9.777515411E0,-1.735945493E-1,-2.333050519E-1
2.949571298E1,9.777467728E0,-1.721963882E-1,-2.349139154E-1
2.954571298E1,9.791236877E0,-1.685729623E-1,-2.420892417E-1
2.959571298E1,9.780260086E0,-1.719671041E-1,-2.345067710E-1
2.964571298E1,9.776079178E0,-1.771984845E-1,-2.370110750E-1
2.969571298E1,9.773038864E0,-1.793142855E-1,-2.366325557E-1
2.974571298E1,9.772436142E0,-1.804424524E-1,-2.338809073E-1
2.979571298E1,9.774578094E0,-1.793440878E-1,-2.321145833E-1
2.984571298E1,9.776382446E0,-1.763409376E-1,-2.335709184E-1
2.989571298E1,9.775999069E0,-1.715501845E-1,-2.369192839E-1
2.994571298E1,9.776361465E0,-1.736406982E-1,-2.382487059E-1
2.999571298E1,9.777656555E0,-1.746019125E-1,-2.413889617E-1
3.004571298E1,9.772691727E0,-1.764125228E-1,-2.331106067E-1
3.009571298E1,9.775469780E0,-1.762865782E-1,-2.380298078E-1
3.014571298E1,9.775391579E0,-1.782041490E-1,-2.291995436E-1
3.019571298E1,9.778648376E0,-1.755437404E-1,-2.339386046E-1
3.024571298E1,9.777425766E0,-1.735080630E-1,-2.384603620E-1
3.029571298E1,9.778196335E0,-1.746801138E-1,-2.411385030E-1
3.034571298E1,9.778450012E0,-1.786058247E-1,-2.321916521E-1
3.039571298E1,9.780260086E0,-1.747074127E-1,-2.349256277E-1
3.044571298E1,9.776639938E0,-1.717244387E-1,-2.334455550E-1
3.049571298E1,9.774942398E0,-1.755972803E-1,-2.314053774E-1
3.054571298E1,9.778786659E0,-1.752932370E-1,-2.292144001E-1
3.059571298E1,9.777812958E0,-1.757519543E-1,-2.345155180E-1
3.064571298E1,9.776359558E0,-1.760264039E-1,-2.379833013E-1
3.069571298E1,9.779794693E0,-1.756640673E-1,-2.340295613E-1
3.074571298E1,9.775469780E0,-1.749696136E-1,-2.380301356E-1
3.079571298E1,9.775469780E0,-1.761002392E-1,-2.410024405E-1
3.084571298E1,9.777076721E0,-1.742237210E-1,-2.370220572E-1
3.089571298E1,9.774707794E0,-1.748813987E-1,-2.355377376E-1
3.094571298E1,9.777122498E0,-1.767956316E-1,-2.376938462E-1
3.099571298E1,9.776672363E0,-1.799231470E-1,-2.322188020E-1
3.104571298E1,9.776973724E0,-1.760581434E-1,-2.301872373E-1
3.109571298E1,9.777989388E0,-1.759035289E-1,-2.338476777E-1
3.114571298E1,9.778480530E0,-1.766991913E-1,-2.386853844E-1
3.119571298E1,9.784576416E0,-2.151098251E-1,-2.076918930E-1
3.124571298E1,9.761871338E0,-1.975488961E-1,-2.126578242E-1
3.129571298E1,9.777302742E0,-1.724905372E-1,-2.343178689E-1
3.134571298E1,9.786262512E0,-1.613386571E-1,-2.592264116E-1
3.139571298E1,9.782888412E0,-1.705821902E-1,-2.375291884E-1
3.144571298E1,9.771539688E0,-1.800681204E-1,-2.300748378E-1
3.149571298E1,9.775774002E0,-1.699793786E-1,-2.370604873E-1
3.154571298E1,9.779361725E0,-1.705127954E-1,-2.412226796E-1
3.159571298E1,9.776035309E0,-1.791905165E-1,-2.405837476E-1
3.164571298E1,9.774343491E0,-1.764826179E-1,-2.387949675E-1
3.169571298E1,9.779706955E0,-1.779609323E-1,-2.393415868E-1
3.174571298E1,9.773502350E0,-1.768553257E-1,-2.351667583E-1
3.179571298E1,9.776568413E0,-1.756580174E-1,-2.391257882E-1
3.184571298E1,9.775177956E0,-1.750116050E-1,-2.379766107E-1
3.189571298E1,9.777363777E0,-1.744001210E-1,-2.291035354E-1
3.194571298E1,9.774463654E0,-1.754027009E-1,-2.358949333E-1
3.199571298E1,9.777199745E0,-1.765165627E-1,-2.386883795E-1
3.204571298E1,9.777305603E0,-1.802223325E-1,-2.388994545E-1
3.209571298E1,9.775463104E0,-1.733352542E-1,-2.412487268E-1
3.214571298E1,9.776773453E0,-1.751364768E-1,-2.311723083E-1
3.219571298E1,9.773494720E0,-1.730374992E-1,-2.365387380E-1
3.224571298E1,9.778577805E0,-1.739790291E-1,-2.392641604E-1
3.229571298E1,9.772449493E0,-1.778024584E-1,-2.338103354E-1
3.234571298E1,9.777468681E0,-1.767962277E-1,-2.393061519E-1
3.239571298E1,9.775810242E0,-1.757477671E-1,-2.337618470E-1
3.244571298E1,9.778108597E0,-1.745200157E-1,-2.386023849E-1
3.249571298E1,9.774638176E0,-1.772624254E-1,-2.326038480E-1
3.254571298E1,9.775201797E0,-1.737753749E-1,-2.268179059E-1
3.259571298E1,9.860950470E0,-2.035081834E-1,-2.365557253E-1
3.264571298E1,9.734502792E0,-1.642192751E-1,-2.266758978E-1
3.269571298E1,9.742415428E0,-1.666759402E-1,-2.264734209E-1
3.274571298E1,9.791221619E0,-1.801525652E-1,-2.504529059E-1
3.279571298E1,9.764605522E0,-1.722669899E-1,-2.332105190E-1
3.284571298E1,9.771184921E0,-1.730829328E-1,-2.342715561E-1
3.289571298E1,9.783183098E0,-1.756886393E-1,-2.417442203E-1
3.294571298E1,9.776922226E0,-1.732023358E-1,-2.372246981E-1
3.299571298E1,9.784091949E0,-1.795761138E-1,-2.319916487E-1
3.304571298E1,9.778435707E0,-1.755305231E-1,-2.391674072E-1
3.309571298E1,9.776361465E0,-1.767956465E-1,-2.353201210E-1
3.314571298E1,9.777697563E0,-1.770322323E-1,-2.368478477E-1
3.319571298E1,9.775308609E0,-1.781379133E-1,-2.382496446E-1
3.324571298E1,9.775440216E0,-1.762388945E-1,-2.385137677E-1
3.329571298E1,9.775124550E0,-1.785790324E-1,-2.370632887E-1
3.334571298E1,9.770664215E0,-1.781274527E-1,-2.400139421E-1
3.339571298E1,9.778112411E0,-1.748401821E-1,-2.335185260E-1
3.344571298E1,9.784206390E0,-1.757060885E-1,-2.336864471E-1
3.349571298E1,9.781234741E0,-1.743997186E-1,-2.375184447E-1
3.354571298E1,9.763671875E0,-1.732263267E-1,-2.394275516E-1
3.359571298E1,9.790832520E0,-1.802452803E-1,-2.340565324E-1
3.364571298E1,9.748932838E0,-1.689145863E-1,-2.345874608E-1
3.369571298E1,9.803246498E0,-1.834538877E-1,-2.320256531E-1
3.374571298E1,9.755519867E0,-1.683045775E-1,-2.315453142E-1
3.379571298E1,9.780778885E0,-1.759084761E-1,-2.363739908E-1
3.384571298E1,9.779342651E0,-1.768002659E-1,-2.358478904E-1
3.389571298E1,9.777027130E0,-1.731845140E-1,-2.324511856E-1
3.394571298E1,9.772695541E0,-1.703099012E-1,-2.304478586E-1
3.399571298E1,1.014924622E1,-2.621378899E-1,-2.976482809E-1
3.404571298E1,9.176447868E0,4.517021030E-2,-1.352466047E-1
3.409571298E1,1.049998283E1,-3.555194139E-1,-2.211298645E-1
3.414571298E1,9.321344376E0,-4.677276313E-2,-1.796751767E-1
3.419571298E1,9.653667450E0,-1.596898437E-1,-2.397332788E-1
3.424571298E1,9.827058792E0,-2.027994543E-1,-2.165773511E-1
3.429571298E1,9.893298149E0,-2.071727514E-1,-2.490151525E-1
3.434571298E1,9.660384178E0,-1.452299058E-1,-2.407665849E-1
3.439571298E1,9.771226883E0,-1.705301404E-1,-2.395493984E-1
3.444571298E1,9.755767822E0,-1.710946560E-1,-2.415600419E-1
3.449571298E1,9.770793915E0,-1.741641462E-1,-2.506515980E-1
3.454571298E1,9.775876999E0,-1.792332530E-1,-2.373078614E-1
3.459571298E1,9.783666611E0,-1.790825278E-1,-2.439145744E-1
3.464571298E1,9.779130936E0,-1.774350405E-1,-2.444632053E-1
3.469571298E1,9.761747360E0,-1.768596768E-1,-2.467149496E-1
3.474571298E1,9.776231766E0,-1.753383130E-1,-2.419599295E-1
3.479571298E1,9.784877777E0,-1.740493327E-1,-2.455101311E-1
3.484571298E1,9.773792267E0,-1.761879772E-1,-2.395962775E-1
3.489571298E1,9.768748283E0,-1.770287454E-1,-2.362635881E-1
3.494571298E1,9.777212143E0,-1.780209839E-1,-2.399703413E-1
3.499571298E1,9.775774956E0,-1.756163388E-1,-2.346218228E-1
3.504571298E1,9.769290924E0,-1.738384664E-1,-2.397617698E-1
3.509571298E1,9.781387329E0,-1.775407791E-1,-2.386566997E-1
3.514571298E1,9.785543442E0,-1.769971848E-1,-2.515431046E-1
3.519571298E1,9.763944626E0,-1.735343337E-1,-2.409094721E-1
3.524571298E1,9.767213821E0,-1.744525731E-1,-2.384566963E-1
3.529571298E1,9.782112122E0,-1.792660654E-1,-2.428186685E-1
3.534571298E1,9.777801514E0,-1.761827916E-1,-2.504913807E-1
3.539571298E1,9.773078918E0,-1.768157482E-1,-2.435705364E-1
3.544571298E1,9.774845123E0,-1.757957637E-1,-2.432838976E-1
3.549571298E1,9.778757095E0,-1.748404354E-1,-2.454440892E-1
3.554571298E1,9.783966064E0,-1.771015227E-1,-2.419371605E-1
3.559571298E1,9.807071686E0,-1.804562807E-1,-2.567011714E-1
3.564571298E1,9.686864853E0,-1.597978026E-1,-2.058514357E-1
3.569571298E1,1.024410248E1,-3.288650513E-1,-2.168980390E-1
3.574571298E1,9.487274170E0,-2.355733514E-1,-7.962830365E-2
3.579571298E1,1.013019753E1,1.011884689E0,-5.916187167E-1
3.584571298E1,1.140999222E1,1.344098926E0,-2.388422728E0
3.589571298E1,1.056130981E1,-1.459192276E0,9.458332062E-1
3.594571298E1,1.303197861E1,-9.924790263E-1,-2.844685018E-1
3.599571298E1,1.279176712E1,2.092156887E0,-7.850802690E-2
3.604571298E1,6.005833626E0,2.253778696E0,3.819213629E0
3.609571298E1,9.650043488E0,4.264988303E-1,9.052377701E0
3.614571298E1,1.100732803E1,1.206273437E-1,9.336762428E0
3.619571298E1,1.024566650E1,-6.065143347E-1,9.500394821E0
3.624571298E1,8.971815109E0,-1.516155958E0,9.745746613E0
3.629571298E1,5.124396324E0,-1.251970530E0,8.036046028E0
3.634571298E1,7.035128593E0,-3.093667328E-2,7.762904167E0
3.639571298E1,5.845158577E0,1.259667873E0,5.931963921E0
3.644571298E1,4.492479324E0,4.518671036E-1,6.082967758E0
3.649571298E1,6.832932472E0,-1.818637252E-1,7.554147243E0
3.654571298E1,8.347889900E0,-1.707220197E0,8.925674438E0
3.659571298E1,7.583087444E0,-1.342599511E0,8.119805336E0
3.664571298E1,5.968029499E0,-7.319306731E-1,7.595051765E0
3.669571298E1,6.950091362E0,5.333054662E-1,7.140669346E0
3.674571298E1,6.800076485E0,5.417944789E-1,6.107822895E0
3.679571298E1,5.340936661E0,-1.009514406E-1,5.421179771E0
3.684571298E1,5.016973019E0,7.151350379E-2,5.209949493E0
3.689571298E1,5.719731331E0,-1.118227020E-1,6.087789536E0
3.694571298E1,6.537327766E0,1.186346054E0,6.421514988E0
3.699571298E1,7.799435616E0,1.724363446E0,6.726033211E0
3.704571298E1,8.072087288E0,1.454671860E0,6.621936798E0
3.709571298E1,6.864835262E0,4.904134572E-1,6.920079708E0
3.714571298E1,5.545118332E0,-2.358925790E-1,7.003063679E0
3.719571298E1,5.772744179E0,-5.147806555E-2,6.678805351E0
3.724571298E1,6.233473778E0,1.425339580E0,5.712647438E0
3.729571298E1,6.701194286E0,1.736408591E0,5.832602501E0
3.734571298E1,6.009158134E0,2.927731574E-1,6.077196121E0
3.739571298E1,5.830442429E0,-1.811883599E-2,6.175627708E0
3.744571298E1,5.757713318E0,1.053242445E0,5.458002090E0
3.749571298E1,6.818216324E0,1.365321636E0,5.804369450E0
3.754571298E1,7.849343300E0,5.295735002E-1,6.873273373E0
3.759571298E1,7.423249245E0,3.901104331E-1,6.475557804E0
3.764571298E1,6.240262985E0,3.904078305E-1,5.075343132E0
3.769571298E1,6.154747963E0,-4.414426908E-2,5.527645111E0
3.774571298E1,7.507052422E0,1.352939475E-2,6.311811447E0
3.779571298E1,7.871579170E0,1.674290374E-2,5.966166496E0
3.784571298E1,8.221884727E0,-6.706458330E-1,5.835730553E0
3.789571298E1,7.565814018E0,-1.494581699E0,5.864730835E0
3.794571298E1,7.467123032E0,-1.804550171E0,5.422371387E0
3.799571298E1,6.379104614E0,2.083067596E-1,2.346614838E0
3.804571298E1,8.051032066E0,1.012058973E0,2.869608879E0
3.809571298E1,6.170146942E0,-2.772250175E0,6.174385071E0
3.814571298E1,9.485578537E0,1.762206674E0,4.168346405E0
3.819571298E1,1.067502785E1,1.825936556E0,5.160762787E0
3.824571298E1,8.076275826E0,-1.212915421E0,5.991604805E0
3.829571298E1,9.339984894E0,-8.199940622E-2,4.320380688E0
3.834571298E1,7.718630791E0,-8.011567593E-1,4.545145035E0
3.839571298E1,9.468963623E0,8.939737082E-1,4.245524883E0
3.844571298E1,8.191087723E0,-9.139320850E-1,5.284397602E0
3.849571298E1,8.066209793E0,-4.339485466E-1,4.686830997E0
3.854571298E1,9.329540253E0,4.314185381E-1,4.297099113E0
3.859571298E1,8.598954201E0,-1.150780916E-2,4.868311882E0
3.864571298E1,9.792760849E0,-2.504685521E-1,5.744761467E0
3.869571298E1,9.598619461E0,2.175954580E-1,5.338189125E0
3.874571298E1,7.966627121E0,-5.598900318E-1,5.348035336E0
3.879571298E1,8.076040268E0,5.769057572E-2,4.710530758E0
3.884571298E1,7.820422173E0,-6.485670209E-1,5.708702564E0
3.889571298E1,6.440597534E0,-1.470045328E0,5.716381073E0
3.894571298E1,6.905483246E0,5.338613689E-2,4.473592758E0
3.899571298E1,7.559035301E0,-5.773633718E-1,5.499837875E0
3.904571298E1,7.195905685E0,-2.425601482E0,7.222009182E0
3.909571298E1,7.078032017E0,-2.276062965E0,6.327287197E0
3.914571298E1,6.946722031E0,-1.398835540E0,6.441327572E0
3.919571298E1,6.606359482E0,-2.434611320E0,7.500874519E0
3.924571298E1,6.769100189E0,-2.052099466E0,7.637108326E0
3.929571298E1,7.436543465E0,-1.359744549E0,6.677297592E0
3.934571298E1,6.693674088E0,-1.771882415E0,6.328301430E0
3.939571298E1,5.982357025E0,-2.197313309E0,6.649599075E0
3.944571298E1,5.728859901E0,-2.433744192E0,6.387598038E0
3.949571298E1,5.278239250E0,-2.237628937E0,6.435638428E0
3.954571298E1,5.740032673E0,-2.188920498E0,7.039055347E0
3.959571298E1,6.346143246E0,-2.111327648E0,7.583525658E0
3.964571298E1,6.169157028E0,-1.795570970E0,7.325694084E0
3.969571298E1,6.533333778E0,-1.671947479E0,7.713753223E0
3.974571298E1,5.967288494E0,-1.986679792E0,8.217798233E0
3.979571298E1,7.104876518E0,-2.387452573E-1,6.961600304E0
3.984571298E1,6.603729725E0,-1.385484576E0,8.263588905E0
3.989571298E1,5.777580261E0,-3.036005020E0,9.720952034E0
3.994571298E1,8.934132576E0,-1.514840603E0,8.486546516E0
3.999571298E1,6.494231224E0,-1.281443119E0,7.735545158E0
4.004571298E1,5.694637299E0,-1.508532047E0,7.915781021E0
4.009571298E1,5.546961308E0,-1.878353357E0,7.848626614E0
4.014571298E1,6.122264862E0,-3.318270445E-1,7.350839615E0
4.019571298E1,5.768205166E0,9.835211039E-1,5.291855812E0
4.024571298E1,3.465749025E0,-3.135437727E0,9.784167290E0
4.029571298E1,6.009008408E0,-3.779222965E0,8.187503815E0
4.034571298E1,6.400105476E0,6.810937524E-1,6.280673027E0
4.039571298E1,4.927665234E0,1.873369515E-1,6.766715050E0
4.044571298E1,4.397032738E0,-1.401709318E0,7.561329842E0
4.049571298E1,6.919091225E0,-4.850883484E-1,7.556239128E0
4.054571298E1,5.964136600E0,-7.556251884E-1,7.913623810E0
4.059571298E1,6.194156647E0,-1.075777769E0,8.856224060E0
4.064571298E1,6.870261192E0,-8.238016367E-1,8.383481979E0
4.069571298E1,6.420923233E0,-1.177521229E0,7.817818165E0
4.074571298E1,5.064598560E0,-1.332888126E0,7.170691490E0
4.079571298E1,5.491330147E0,-3.205202818E-1,6.571401596E0
4.084571298E1,6.038949013E0,1.372863799E-1,6.635187149E0
4.089571298E1,6.962218285E0,-6.195326895E-2,7.093604088E0
4.094571298E1,5.645683289E0,-6.888405085E-1,7.595177650E0
4.099571298E1,6.293091774E0,-3.629911840E-1,7.899354935E0
4.104571298E1,7.616149902E0,-3.643475473E-1,8.328263283E0
4.109571298E1,5.866545677E0,-1.070469856E0,8.688896179E0
4.114571298E1,5.255560875E0,7.364998758E-2,7.892032623E0
4.119571298E1,7.195708752E0,4.279411435E-1,7.540366173E0
4.124571298E1,7.222207069E0,5.575122833E-1,7.648288250E0
4.129571298E1,6.749963760E0,1.325806379E0,7.099970818E0
4.134571298E1,7.051930428E0,1.265578151E0,6.816015720E0
4.139571298E1,7.494610786E0,1.899811268E0,6.474082947E0
4.144571298E1,7.571574211E0,2.558709145E0,5.465665340E0
4.149571298E1,5.823882580E0,9.498053789E-1,7.634506226E0
4.154571298E1,6.984864235E0,1.045633674E0,7.445258141E0
4.159571298E1,7.854084015E0,4.642606080E-1,7.094704151E0
4.164571298E1,5.706398010E0,4.640100300E-1,6.114383698E0
4.169571298E1,6.577929497E0,2.465333223E0,4.257296085E0
4.174571298E1,8.397626877E0,7.090889215E-1,6.903564930E0
4.179571298E1,5.704928398E0,8.146961927E-1,6.635393143E0
4.184571298E1,7.136415482E0,1.883645058E0,6.657835960E0
4.189571298E1,8.601873398E0,1.095039487E0,8.013960838E0
4.194571298E1,8.636020660E0,7.455251217E-1,8.644598007E0
4.199571298E1,7.844401360E0,1.046551228E0,6.605455875E0
4.204571298E1,7.741606712E0,7.353399992E-1,5.323472023E0
4.209571298E1,7.670277596E0,9.802916050E-1,6.032191753E0
4.214571298E1,7.335808754E0,-1.382141471E0,6.936410904E0
4.219571298E1,7.988924980E0,1.448743343E0,5.010435581E0
4.224571298E1,7.258883476E0,1.074434757E0,6.565050602E0
4.229571298E1,7.772256851E0,1.069696903E0,6.558220863E0
4.234571298E1,7.586534500E0,9.404042959E-1,6.304943085E0
4.239571298E1,7.604408741E0,8.595025539E-1,5.824954510E0
4.244571298E1,7.999177456E0,8.634204268E-1,5.193374634E0
4.249571298E1,8.441410065E0,1.603628635E0,5.392412663E0
4.254571298E1,8.081283569E0,1.454600573E0,5.147641182E0
4.259571298E1,8.334416389E0,1.711096764E0,5.106061935E0
4.264571298E1,8.276002884E0,1.896592140E0,4.891924858E0
4.269571298E1,8.240428925E0,1.923297644E0,4.393084526E0
4.274571298E1,8.590633392E0,1.689524174E0,3.974256039E0
4.279571298E1,9.457328796E0,1.835098505E0,3.983491659E0
4.284571298E1,9.003326416E0,1.707943678E0,3.769692421E0
4.289571298E1,8.780997276E0,2.091078758E0,3.344786167E0
4.294571298E1,8.675151825E0,3.886891842E0,3.073057175E0
4.299571298E1,8.484941483E0,3.426893711E0,2.837958097E0
4.304571298E1,9.725265503E0,2.490085602E0,1.901435137E0
4.309571298E1,9.757683754E0,1.528259754E0,1.462434769E0
4.314571298E1,9.586175919E0,1.699196219E0,1.187384844E0
4.319571298E1,9.875928879E0,2.072443008E0,1.175503254E0
4.324571298E1,8.813615799E0,2.125089645E0,4.350220263E-1
4.329571298E1,9.802852631E0,1.925307274E0,4.097141922E-1
4.334571298E1,9.867872238E0,2.071760416E0,-1.998862028E-1
4.339571298E1,9.603929520E0,6.592949033E-1,-6.471468806E-1
4.344571217E1,9.534046173E0,1.458214998E0,1.050055325E-1
4.349571217E1,8.495152473E0,1.617118835E0,-3.865096271E-1
4.354571217E1,9.762072563E0,2.089437962E0,-6.564965844E-1
4.359571217E1,1.117342472E1,2.019517899E0,-7.740359306E-1
4.364571217E1,9.789003372E0,2.020177841E0,-8.790329099E-1
4.369571217E1,9.730556488E0,2.016784668E0,-4.947288334E-1
4.374571217E1,9.203586578E0,2.108915806E0,-6.431573629E-1
4.379571217E1,8.591854095E0,2.993904352E0,-3.028542995E-1
4.384571217E1,9.764795303E0,1.872684360E0,-2.196324348E0
4.389571217E1,1.003703403E1,8.756319880E-1,-2.592221022E0
4.394571217E1,9.627532959E0,1.323478460E0,-1.863136530E0
4.399571217E1,7.935242176E0,2.574670076E0,-4.102025986E0
4.404571217E1,8.669071198E0,1.781682730E0,-2.740956545E0
4.409571217E1,9.870776176E0,1.862391949E0,-2.356148958E0
4.414571217E1,8.880800247E0,2.230436325E0,-4.510310173E0
4.419571217E1,9.068059921E0,2.727579594E0,-2.865762949E0
4.424571217E1,8.258657455E0,2.839340687E0,-4.581159592E0
4.429571217E1,9.390364647E0,1.802621365E0,-4.009279728E0
4.434571217E1,8.455684662E0,1.032933712E0,-4.150057316E0
4.439571217E1,8.475794792E0,-7.812145948E-1,-3.758099794E0
4.444571217E1,9.644302368E0,1.003858924E0,-3.850124836E0
4.449571217E1,6.978806496E0,8.126374483E-1,-3.130902290E0
4.454571217E1,3.773404598E0,4.336889267E0,-6.139546394E0
4.459571217E1,7.872801304E0,3.700240552E-1,-3.753879547E0
4.464571217E1,1.157051468E1,1.071803093E0,-7.328532219E0
4.469571217E1,8.494778633E0,-1.445474029E-1,-4.833824158E0
4.474571217E1,8.939235687E0,2.058356524E0,-5.239618301E0
4.479571217E1,8.452504158E0,-9.944884777E-1,-4.141114712E0
4.484571217E1,8.123099327E0,-1.910745025E0,-3.427718163E0
4.489571217E1,5.720926285E0,1.302569032E0,-5.101366997E0
4.494571217E1,6.374030113E0,-9.042772055E-1,-4.998370171E0
4.499571217E1,1.195058537E1,-8.597177267E-2,-1.011299419E1
4.504571217E1,9.740518570E0,-3.514537215E-1,-1.018244171E1
4.509571217E1,8.449324608E0,-1.060185552E0,-5.392954350E0
4.514571217E1,8.105310440E0,-2.850229025E0,-1.222525597E0
4.519571217E1,5.948290348E0,-1.126617074E0,-2.795806408E0
4.524571217E1,8.670016289E0,1.128162146E0,-7.200031281E0
4.529571217E1,1.035606194E1,-1.696762443E-1,-8.010314941E0
4.534571217E1,8.687368393E0,-1.602922678E0,-4.530773640E0
4.539571217E1,6.704436302E0,1.009923577E0,-6.379250050E0
4.544571217E1,7.836409569E0,1.071445227E0,-6.048984528E0
4.549571217E1,7.762760162E0,1.602053642E0,-5.002721786E0
4.554571217E1,6.617488384E0,-3.767109513E-1,-2.800151348E0
4.559571217E1,6.680275917E0,1.409813046E0,-4.779730320E0
4.564571217E1,8.328869820E0,1.461963773E0,-5.356973648E0
4.569571217E1,8.865814209E0,1.619195700E0,-6.534734726E0
4.574571217E1,8.486654282E0,1.394879460E0,-5.370112896E0
4.579571217E1,7.736245155E0,5.435561538E-1,-4.105879784E0
4.584571217E1,7.378112793E0,9.460537434E-1,-3.808904648E0
4.589571217E1,8.333456039E0,2.061058998E0,-5.730936527E0
4.594571217E1,8.777968407E0,2.239105463E0,-6.396647453E0
4.599571217E1,8.400526047E0,3.054347038E-1,-4.649594307E0
4.604571217E1,7.044911861E0,1.632528156E-1,-3.910254002E0
4.609571217E1,7.082171440E0,8.547204733E-1,-4.863904476E0
4.614571217E1,1.039505005E1,-2.766960561E-1,-5.763418674E0
4.619571217E1,9.549339294E0,1.132555723E0,-6.311784744E0
4.624571217E1,7.557286739E0,-1.012371778E0,-3.392340183E0
4.629571217E1,9.258561134E0,-4.593452215E-1,-4.912213326E0
4.634571217E1,7.886151791E0,-5.075258017E-1,-4.021077156E0
4.639571217E1,7.036345482E0,-3.987461329E-2,-4.125618935E0
4.644571217E1,1.036560631E1,1.644948483E0,-8.365832329E0
4.649571217E1,6.056197166E0,-2.443769455E0,-3.462189198E0
4.654571217E1,8.845404625E0,-8.817706704E-1,-5.688879967E0
4.659571217E1,7.684459686E0,-3.424734473E-1,-5.161582947E0
4.664571217E1,8.556764603E0,-9.853532314E-1,-4.027184010E0
4.669571217E1,8.797428131E0,-1.854760349E-1,-5.822013855E0
4.674571217E1,9.289409637E0,-3.458864689E-1,-5.993229866E0
4.679571217E1,8.217729568E0,-1.060545683E0,-4.716951370E0
4.684571217E1,8.364755630E0,-7.822319269E-1,-5.304519653E0
4.689571217E1,6.588624001E0,-1.356277466E0,-3.230558634E0
4.694571217E1,7.965413094E0,-8.796061873E-1,-4.444443703E0
4.699571217E1,9.737699509E0,1.687243208E-2,-6.121000290E0
4.704571217E1,8.025775909E0,-1.847728491E-1,-5.210912704E0
4.709571217E1,8.672660828E0,-2.430320263E0,-4.549906731E0
4.714571217E1,8.140549660E0,-3.062024415E-1,-5.424174786E0
4.719571217E1,8.307691574E0,-7.459598780E-1,-4.345644951E0
4.724571217E1,8.338655472E0,-6.282677650E-1,-4.183620453E0
4.729571217E1,9.105059624E0,1.956849098E-1,-5.422828197E0
4.734571217E1,8.295087814E0,-1.598915577E0,-4.776651382E0
4.739571217E1,8.174469948E0,-9.852238894E-1,-4.748794556E0
4.744571217E1,9.287318230E0,-6.499961019E-1,-4.471264839E0
4.749571217E1,7.940118790E0,-5.986141562E-1,-4.518469334E0
4.754571217E1,8.235332489E0,4.128952697E-2,-4.734455109E0
4.759571217E1,8.368522644E0,-5.251259208E-1,-4.609367371E0
4.764571217E1,9.180966377E0,-5.584328175E-1,-4.664110184E0
4.769571217E1,8.231998444E0,-9.002035260E-1,-4.819063187E0
4.774571217E1,8.834588051E0,-7.283975482E-1,-4.573153973E0
4.779571217E1,8.251372337E0,-7.986946106E-1,-4.729241371E0
4.784571217E1,8.407159805E0,-3.729369938E-1,-4.548677444E0
4.789571217E1,8.205748558E0,-5.426965356E-1,-4.660027981E0
4.794571217E1,8.836881638E0,-9.407463074E-1,-4.797202587E0
4.799571217E1,8.459179878E0,-6.434450746E-1,-4.725955486E0
4.804571217E1,8.391729355E0,-6.662181616E-1,-4.750382423E0
4.809571217E1,8.352742195E0,-2.763609290E-1,-4.722171783E0
4.814571217E1,8.647230148E0,-7.037128210E-1,-4.897287369E0
4.819571217E1,8.293947220E0,-3.138321340E-1,-4.776102066E0
4.824571217E1,8.472731590E0,-3.848896921E-1,-4.793552399E0
4.829571217E1,8.130516052E0,-4.312419891E-1,-4.396775246E0
4.834571217E1,8.936777115E0,-8.686177135E-1,-4.860280514E0
4.839571217E1,8.510469437E0,-1.599479318E0,-4.748747826E0
4.844571217E1,8.461133957E0,-9.197010994E-1,-4.716788292E0
4.849571217E1,8.647665024E0,-6.269602180E-1,-4.759809971E0
4.854571217E1,8.455610275E0,5.760667101E-2,-4.414549828E0
4.859571217E1,8.609819412E0,-3.545994759E-1,-4.524960518E0
4.864571217E1,8.384347916E0,-1.228500724E0,-4.588598728E0
4.869571217E1,8.729304314E0,-1.146027803E0,-4.622964859E0
4.874571217E1,8.410686493E0,-1.009361506E0,-4.405219078E0
4.879571217E1,8.695548058E0,-3.569786549E-1,-4.481534958E0
4.884571217E1,8.588752747E0,-9.404352903E-1,-4.394581795E0
4.889571217E1,8.576986313E0,-1.142309189E0,-4.487394810E0
4.894571217E1,8.688068390E0,-7.256824374E-1,-4.492124557E0
4.899571217E1,8.675573349E0,-8.918890357E-1,-4.380049706E0
4.904571217E1,8.691170692E0,-1.007639408E0,-4.481021404E0
4.909571217E1,8.410626411E0,-9.564516544E-1,-4.409396172E0
4.914571217E1,8.461070061E0,-1.009207368E0,-4.299418449E0
4.919571217E1,8.473670959E0,-7.571456432E-1,-4.420135975E0
4.924571217E1,9.032920837E0,-6.366335154E-1,-4.566369057E0
4.929571217E1,8.725463867E0,-1.172726512E0,-4.403986454E0
4.934571217E1,8.676098824E0,-8.699466586E-1,-4.413956642E0
4.939571217E1,8.683218002E0,-1.162748814E0,-4.493532658E0
4.944571217E1,8.667928696E0,-4.797837138E-1,-4.449756622E0
4.949571217E1,8.571268082E0,-9.856075048E-1,-4.448194504E0
4.954571217E1,8.523479462E0,-1.248345852E0,-4.332263947E0
4.959571217E1,8.475288391E0,-1.079269767E0,-4.577502251E0
4.964571217E1,8.432322502E0,-1.046451688E0,-4.388742924E0
4.969571217E1,8.770668030E0,-1.333590984E0,-4.326323509E0
4.974571217E1,8.476876259E0,-1.013500452E0,-4.447349548E0
4.979571217E1,8.735359192E0,-1.223809719E0,-4.451531410E0
4.984571217E1,8.673464775E0,-9.639465213E-1,-4.245874405E0
4.989571217E1,8.882775307E0,-1.535466671E0,-4.465481758E0
4.994571217E1,8.125236511E0,-1.535236597E0,-4.266311646E0
4.999571217E1,8.841741562E0,-1.509510517E0,-4.251448631E0
5.004571217E1,8.535928726E0,-1.080761671E0,-4.390330315E0
5.009571217E1,8.308365822E0,-1.246567488E0,-4.275843620E0
5.014571217E1,8.404380798E0,-1.425882101E0,-4.261179924E0
5.019571217E1,8.903432846E0,-1.309969425E0,-4.335877895E0
5.024571217E1,8.751868248E0,-7.921426892E-1,-4.299614906E0
5.029571217E1,8.717794418E0,-1.132904768E0,-4.400082588E0
5.034571217E1,8.762185097E0,-1.416062832E0,-4.363288879E0
5.039571217E1,8.779909134E0,-1.589920521E0,-4.400847435E0
5.044571217E1,8.070070267E0,-1.208448291E0,-4.139352798E0
5.049571217E1,8.578468323E0,-1.323606968E0,-4.302771091E0
5.054571217E1,8.768585205E0,-1.653157592E0,-4.369198799E0
5.059571217E1,8.597452164E0,-1.570663214E0,-4.183318138E0
5.064571217E1,8.631062508E0,-1.255092621E0,-4.259082317E0
5.069571217E1,8.733531952E0,-1.105068922E0,-4.279163361E0
5.074571217E1,8.279087067E0,-1.378767729E0,-4.215717316E0
5.079571217E1,8.731504440E0,-1.580006361E0,-4.306902885E0
5.084571217E1,9.000368118E0,-1.416793346E0,-4.336758137E0
5.089571217E1,8.824701309E0,-1.323472023E0,-4.244397163E0
5.094571217E1,8.092620850E0,-1.234719992E0,-4.189694405E0
5.099571217E1,8.598629951E0,-1.542593718E0,-4.282521248E0
5.104571217E1,8.695807457E0,-1.516304016E0,-4.327377319E0
5.109571217E1,8.612226486E0,-1.201697826E0,-4.311616898E0
5.114571217E1,8.889308929E0,-1.174244642E0,-4.318644047E0
5.119571217E1,8.669332504E0,-1.242027760E0,-4.304276943E0
5.124571217E1,8.638024330E0,-1.558061600E0,-4.333291531E0
5.129571217E1,8.541065216E0,-1.455209017E0,-4.229062080E0
5.134571217E1,8.310754776E0,-1.359977603E0,-4.239992142E0
5.139571217E1,8.568655968E0,-1.363605976E0,-4.288402081E0
5.144571217E1,8.897769928E0,-1.500818253E0,-4.374168396E0
5.149571217E1,8.857412338E0,-1.488406658E0,-4.339323521E0
5.154571217E1,8.292322159E0,-1.205992222E0,-4.277056694E0
5.159571217E1,8.610623360E0,-1.526295900E0,-4.300828934E0
5.164571217E1,8.578374863E0,-1.695938587E0,-4.452062607E0
5.169571217E1,8.700494766E0,-1.334493279E0,-4.484717369E0
5.174571217E1,8.585763931E0,-1.498163939E0,-4.273158550E0
5.179571217E1,8.339392662E0,-9.400330186E-1,-4.309719086E0
5.184571217E1,8.900770187E0,-1.007743239E0,-4.358564377E0
5.189571217E1,8.198187828E0,-1.573615313E0,-4.494852066E0
5.194571217E1,9.473286629E0,-5.139367580E-1,-4.572648048E0
5.199571217E1,8.184256554E0,-1.909388542E0,-4.358720779E0
5.204571217E1,8.180355072E0,-8.202957511E-1,-4.302353859E0
5.209571217E1,8.981307983E0,-1.144567013E0,-4.371056557E0
5.214571217E1,8.674167633E0,-1.131345272E0,-4.406917095E0
5.219571217E1,8.544109344E0,-8.256030083E-1,-4.419497490E0
5.224571217E1,8.436330795E0,-1.104438066E0,-4.317578316E0
5.229571217E1,8.868432999E0,-1.122570038E0,-4.352146149E0
5.234571217E1,8.138493538E0,-1.240414262E0,-4.254484177E0
5.239571217E1,8.843914032E0,-1.075165510E0,-4.453854561E0
5.244571217E1,8.608880997E0,-7.936377525E-1,-4.372545719E0
5.249571217E1,8.783973694E0,-6.222382784E-1,-4.284116745E0
5.254571217E1,9.239671707E0,-9.578272104E-1,-4.478164673E0
5.259571217E1,8.927130699E0,-1.230983973E0,-4.137483597E0
5.264571217E1,8.473385811E0,-9.060655236E-1,-3.980015516E0
5.269571217E1,8.565483093E0,-6.435690522E-1,-3.660415649E0
5.274571217E1,8.596334457E0,-7.946968079E-1,-3.755315304E0
5.279571217E1,9.728454590E0,-1.445558816E-1,-3.640471935E0
5.284571217E1,8.632575989E0,-9.904278517E-1,-3.896017313E0
5.289571217E1,8.818561554E0,-3.995991349E-1,-3.489109039E0
5.294571217E1,7.953238487E0,-9.002231956E-1,-3.795810223E0
5.299571217E1,9.362276077E0,-8.893287182E-1,-3.887166023E0
5.304571217E1,8.456932068E0,-4.771876335E-1,-4.074120045E0
5.309571217E1,9.374128342E0,-2.248841822E-1,-4.305879593E0
5.314571217E1,9.154280663E0,-8.611891866E-1,-4.323959351E0
5.319571217E1,8.377524376E0,-5.189181566E-1,-4.271583557E0
5.324571217E1,9.388978004E0,-8.422166705E-1,-4.559063435E0
5.329571217E1,8.343633652E0,-4.070113003E-1,-4.158535480E0
5.334571217E1,9.257192612E0,-8.211671561E-2,-4.463017464E0
5.339571217E1,8.501235962E0,-9.706010818E-1,-4.138240814E0
5.344571217E1,9.444703102E0,-2.411786020E-1,-4.225965500E0
5.349571217E1,7.744170666E0,-4.953355789E-1,-4.099445343E0
5.354571217E1,8.840044022E0,-7.055990696E-1,-3.930224180E0
5.359571217E1,9.459651947E0,-1.306137294E-1,-3.908451080E0
5.364571217E1,8.403141022E0,-2.840666771E-1,-3.913513660E0
5.369571217E1,9.400681496E0,-1.256571054E0,-4.136453629E0
5.374571217E1,8.736810684E0,-2.014179468E0,-3.729944706E0
5.379571217E1,8.538408279E0,1.989072263E-1,-4.103741169E0
5.384571217E1,9.031744003E0,-2.593745589E-1,-4.190549850E0
5.389571217E1,9.356411934E0,-1.018340349E0,-4.087857246E0
5.394571217E1,8.000338554E0,-1.068079710E0,-4.040266991E0
5.399571217E1,9.615636826E0,-5.654676557E-1,-4.015614510E0
5.404571217E1,8.391432762E0,-6.216657162E-1,-4.332778931E0
5.409571217E1,8.256213188E0,-5.633655787E-1,-3.867244720E0
5.414571217E1,9.183837891E0,-1.097575903E0,-4.373285294E0
5.419571217E1,8.306389809E0,-5.987032652E-1,-4.194380283E0
5.424571217E1,8.862503052E0,4.140634537E-1,-4.334295273E0
5.429571217E1,8.313669205E0,-8.183745146E-1,-4.379472733E0
5.434571217E1,8.703399658E0,-1.730817080E0,-4.409903526E0
5.439571217E1,9.818366051E0,-3.369284570E-1,-4.879449844E0
5.444571217E1,7.785370827E0,-5.773409083E-2,-4.355253220E0
5.449571217E1,8.467496872E0,-7.361533642E-1,-4.521481514E0
5.454571217E1,8.894462585E0,-8.938415051E-1,-4.371950150E0
5.459571217E1,8.442267418E0,-5.651732683E-1,-4.419341087E0
5.464571217E1,8.690989494E0,-8.360406756E-2,-4.551373482E0
5.469571217E1,8.492589951E0,-4.724662304E-1,-4.467150688E0
5.474571217E1,8.837623596E0,-8.343832493E-1,-4.460559368E0
5.479571217E1,8.740243912E0,-4.629891813E-1,-4.574336052E0
5.484571217E1,8.605728149E0,1.220117807E-1,-4.522200584E0
5.489571217E1,8.215326309E0,-1.211399794E0,-4.536577225E0
5.494571217E1,8.941690445E0,1.196277887E-1,-4.470005512E0
5.499571217E1,7.846250057E0,-1.906389147E-1,-4.476139545E0
5.504571217E1,9.544956207E0,-4.039075077E-1,-4.749209404E0
5.509571217E1,8.187425613E0,-4.345451593E-1,-4.419898987E0
5.514571217E1,8.828536987E0,-1.758712232E-1,-4.728078365E0
5.519571217E1,9.046316147E0,-4.408027232E-2,-4.345773697E0
5.524571217E1,7.533802986E0,-8.198593557E-2,-4.011975288E0
5.529571217E1,8.845247269E0,6.392861903E-2,-4.544134617E0
5.534571217E1,8.837491989E0,-4.694469646E-2,-4.628910065E0
5.539571217E1,8.705951691E0,-6.424954534E-1,-4.205567360E0
5.544571217E1,8.335990906E0,2.228251994E-1,-4.602834225E0
5.549571217E1,8.744794846E0,2.497561276E-1,-4.589803219E0
5.554571217E1,8.771615028E0,-2.624456584E-1,-4.489864349E0
5.559571217E1,8.153882980E0,-3.164731562E-1,-4.486516953E0
5.564571217E1,9.414102554E0,6.325437129E-2,-4.823968887E0
5.569571217E1,9.199702263E0,-2.785414457E-1,-4.939041138E0
5.574571217E1,8.554483414E0,-2.597800195E-1,-4.535493851E0
5.579571217E1,8.255496979E0,-1.282030046E-1,-4.696211815E0
5.584571217E1,8.658299446E0,1.048361063E-1,-4.541050911E0
5.589571217E1,8.508218765E0,-2.760768235E-1,-4.489470482E0
5.594571217E1,8.568467140E0,-4.257673919E-1,-4.479721546E0
5.599571217E1,8.490812302E0,5.097725242E-2,-4.537063599E0
5.604571217E1,9.234422684E0,-1.875708848E-1,-4.471362114E0
5.609571217E1,8.774200439E0,-3.144798875E-1,-4.416033745E0
5.614571217E1,7.950937271E0,6.214120984E-2,-4.142387867E0
5.619571217E1,8.369637489E0,3.638238311E-1,-4.518474579E0
5.624571217E1,9.027518272E0,1.451152265E-1,-4.587542534E0
5.629571217E1,8.727596283E0,-5.072780848E-1,-4.325856209E0
5.634571217E1,8.872077942E0,-2.460532486E-1,-4.487204075E0
5.639571217E1,8.209836006E0,2.624145150E-1,-4.429699421E0
5.644571217E1,8.696783066E0,-4.080761969E-1,-4.446315765E0
5.649571217E1,8.697260857E0,-5.451421142E-1,-4.509133339E0
5.654571217E1,8.842439651E0,1.485338807E-1,-4.512268066E0
5.659571217E1,8.309095383E0,-8.119356632E-2,-4.522201538E0
5.664571217E1,8.841579437E0,-9.664842486E-2,-4.533754349E0
5.669571217E1,8.607168198E0,-2.270508111E-1,-4.540942192E0
5.674571217E1,8.647956848E0,-8.994548023E-2,-4.556535244E0
5.679571217E1,8.618622780E0,-6.037857383E-3,-4.609069824E0
5.684571217E1,8.289786339E0,-1.408945322E-1,-4.378755569E0
5.689571217E1,8.850194931E0,-4.949631989E-1,-4.559738159E0
5.694571217E1,8.424867630E0,-4.375804588E-2,-4.547227383E0
5.699571217E1,8.860553741E0,-2.872837782E-1,-4.552048206E0
5.704571217E1,8.769588470E0,-4.283352569E-2,-4.619707108E0
5.709571217E1,8.361767769E0,8.052680641E-2,-4.550616264E0
5.714571217E1,8.880128860E0,-1.701810211E-1,-4.520574570E0
5.719571217E1,8.461631775E0,-2.635299973E-2,-4.431934357E0
5.724571217E1,8.549337387E0,-1.057679430E-1,-4.472271919E0
5.729571217E1,8.802728653E0,-4.114544392E-2,-4.436194897E0
5.734571217E1,8.714474678E0,-2.243947238E-1,-4.472568512E0
5.739571217E1,8.513355255E0,7.326050103E-2,-4.368512154E0
5.744571217E1,8.827781677E0,2.872483060E-2,-4.464825153E0
5.749571217E1,8.575733185E0,5.134980194E-3,-4.337724209E0
5.754571217E1,8.619524002E0,1.341234744E-1,-4.525887966E0
5.759571217E1,8.493305206E0,-1.313075274E-1,-4.262381554E0
5.764571217E1,9.023642540E0,-5.017806888E-1,-4.473505020E0
5.769571217E1,8.386487961E0,2.478934228E-1,-4.412624359E0
5.774571217E1,8.930582047E0,-8.342791349E-2,-4.419850349E0
5.779571217E1,8.434980392E0,-1.701233089E-1,-4.412764549E0
5.784571217E1,8.576658249E0,1.597854048E-1,-4.316298962E0
5.789571217E1,8.679922104E0,-6.948463321E-1,-4.301693916E0
5.794571217E1,8.522521973E0,-1.693819761E-1,-4.514517784E0
5.799571217E1,8.473349571E0,7.688902617E-1,-4.401717663E0
5.804571217E1,8.934933662E0,-3.958594501E-1,-4.497303963E0
5.809571217E1,8.748833656E0,-6.071055532E-1,-4.636891365E0
5.814571217E1,8.511182785E0,9.929150343E-2,-4.546071053E0
5.819571217E1,8.432205200E0,2.450289577E-1,-4.506043434E0
5.824571217E1,8.658046722E0,-3.519490361E-1,-4.622993946E0
5.829571217E1,8.597040176E0,-4.573531151E-1,-4.484701157E0
5.834571217E1,8.548666000E0,1.871874481E-1,-4.679339886E0
5.839571217E1,8.495210648E0,8.711016923E-2,-4.621034622E0
5.844571217E1,8.649089813E0,-4.048670530E-1,-4.623970985E0
5.849571217E1,8.507068634E0,-2.827112675E-1,-4.624805450E0
5.854571217E1,8.474879265E0,-1.530232430E-1,-4.532711029E0
5.859571217E1,8.480757713E0,-1.517539769E-1,-4.634923935E0
5.864571217E1,8.695117950E0,-1.234892756E-3,-4.769438744E0
5.869571217E1,8.482393265E0,-2.735587656E-1,-4.567423820E0
5.874571217E1,8.488220215E0,-1.384053528E-1,-4.623908043E0
5.879571217E1,8.596780777E0,-1.096913666E-1,-4.692371845E0
5.884571217E1,8.623247147E0,-3.264228106E-1,-4.685141563E0
5.889571217E1,8.452648163E0,-2.170146406E-1,-4.565968037E0
5.894571217E1,8.538095474E0,1.011541486E-2,-4.727857590E0
5.899571217E1,8.624258041E0,-6.399229169E-2,-4.707266331E0
5.904571217E1,8.438670158E0,-5.433018208E-1,-4.435596466E0
5.909571217E1,8.541735649E0,-1.352120787E-1,-4.663387299E0
5.914571217E1,8.612450600E0,-3.897345662E-1,-4.667119503E0
5.919571217E1,8.258592606E0,-9.988510609E-2,-4.523198128E0
5.924571217E1,8.494317055E0,-9.049245715E-2,-4.715096474E0
5.929571217E1,8.721273422E0,-2.947528958E-1,-4.653087139E0
5.934571217E1,8.145105362E0,-2.800576687E-1,-4.517233849E0
5.939571217E1,8.811822891E0,1.392689943E-1,-4.823781013E0
5.944571217E1,8.507560730E0,-4.321642518E-1,-4.643540382E0
5.949571217E1,8.592195511E0,-5.629419684E-1,-4.740401745E0
5.954571217E1,8.241457939E0,4.742372632E-1,-4.627566338E0
5.959571217E1,8.724427223E0,1.248267293E-2,-4.824842453E0
5.964571217E1,8.649259567E0,-8.458319902E-1,-4.719558716E0
5.969571217E1,8.350044250E0,-1.653227657E-1,-4.713207245E0
5.974571217E1,8.416156769E0,-1.036099568E-1,-4.579966545E0
5.979571217E1,8.355600357E0,-7.182818651E-2,-4.716450691E0
5.984571217E1,8.731971741E0,1.022447720E-1,-4.803273678E0
5.989571217E1,8.969732285E0,-4.088006020E-1,-5.075441360E0
5.994571217E1,7.715322971E0,4.195507616E-2,-4.229800701E0
5.999571217E1,8.770072937E0,2.681664824E-1,-5.005136490E0
6.004571217E1,8.137874603E0,-2.882064283E-1,-4.637742996E0
6.009571217E1,8.658296585E0,-2.179683149E-1,-4.795395851E0
6.014571217E1,8.235271454E0,1.285212189E-1,-4.824806213E0
6.019571217E1,8.356542587E0,1.538562179E-1,-4.815355301E0
6.024571217E1,7.892679691E0,-2.895532846E-1,-4.920803547E0
6.029571217E1,8.871630669E0,-1.211059839E-1,-4.960255623E0
6.034571217E1,8.247949600E0,7.014310956E-1,-5.312715530E0
6.039571217E1,8.552312851E0,-6.432851553E-1,-4.739923477E0
6.044571217E1,7.898151398E0,-1.857476383E-1,-5.135281563E0
6.049571217E1,8.210144043E0,2.549316883E-1,-5.162036896E0
6.054571217E1,8.624237061E0,-3.749468327E-1,-5.467481613E0
6.059571217E1,8.295186043E0,-1.200211346E-1,-4.965216637E0
6.064571217E1,8.186439514E0,-1.357235759E-1,-5.211061954E0
6.069571217E1,8.130466461E0,8.221134543E-3,-5.249228477E0
6.074571217E1,8.254021645E0,1.860861331E-1,-5.164489746E0
6.079571217E1,8.131607056E0,3.794077784E-2,-5.148721218E0
6.084571217E1,8.232468605E0,1.332888752E-2,-4.952628613E0
6.089571217E1,8.445335388E0,2.706687897E-3,-5.148151398E0
6.094571217E1,8.106927872E0,-2.306439579E-1,-5.015903473E0
6.099571217E1,8.359640121E0,2.660109103E-1,-5.141986847E0
6.104571217E1,7.905614376E0,1.324652135E-1,-5.206882477E0
6.109571217E1,8.544750214E0,-7.322970629E-1,-5.081362724E0
6.114571217E1,8.085977554E0,3.445132375E-1,-5.019554138E0
6.119571217E1,8.255565643E0,-9.965071827E-2,-5.156951904E0
6.124571217E1,8.493219376E0,-3.296449184E-1,-5.116236687E0
6.129571217E1,8.596296310E0,4.825187474E-2,-5.047649860E0
6.134571217E1,7.883209705E0,3.584584892E-1,-5.025367737E0
6.139571217E1,8.482265472E0,-7.104928792E-2,-5.078998089E0
6.144571217E1,8.619249344E0,-6.176477671E-2,-4.869920731E0
6.149571217E1,8.148231506E0,8.868992329E-3,-4.777796745E0
6.154571217E1,8.451828003E0,7.269126177E-2,-4.872196198E0
6.159571217E1,8.166668892E0,6.610656977E-1,-5.030520439E0
6.164571217E1,8.856977463E0,1.317346394E-1,-4.751980782E0
6.169571217E1,8.237005234E0,-8.055706322E-2,-4.855487347E0
6.174571217E1,8.249023438E0,8.071978688E-1,-4.731120110E0
6.179571217E1,8.442801476E0,4.601031840E-1,-4.782197952E0
6.184571217E1,8.731178284E0,-1.024503261E-1,-4.715585232E0
6.189571217E1,8.247303009E0,5.668845773E-1,-4.815380096E0
6.194571217E1,8.567220688E0,6.086629033E-1,-4.780179977E0
6.199571217E1,8.417079926E0,1.372071654E-1,-4.690395355E0
6.204571217E1,8.614326477E0,4.834868610E-1,-4.763413429E0
6.209571217E1,8.297496796E0,2.989064455E-1,-4.622397423E0
6.214571217E1,8.579862595E0,4.963829517E-1,-4.814196587E0
6.219571217E1,8.439662933E0,3.667430282E-1,-4.619247437E0
6.224571217E1,8.287504196E0,3.026448488E-1,-4.659499645E0
6.229571217E1,8.538074493E0,6.909749508E-1,-4.833335876E0
6.234571217E1,8.605591774E0,3.131227493E-1,-4.779212952E0
6.239571217E1,8.584033012E0,1.656613201E-1,-4.741643906E0
6.244571217E1,8.361950874E0,5.799961090E-1,-4.771172523E0
6.249571217E1,8.244881630E0,4.370661378E-1,-4.738571167E0
6.254571217E1,8.615231514E0,4.863338470E-1,-4.866249561E0
6.259571217E1,8.380933762E0,5.185117722E-1,-4.767137051E0
6.264571217E1,8.376510620E0,1.845368445E-1,-4.777812958E0
6.269571217E1,8.615077972E0,5.205019563E-2,-4.893554211E0
6.274571217E1,8.443095207E0,7.371590734E-1,-4.844991207E0
6.279571217E1,7.881827831E0,6.746990085E-1,-4.779677391E0
6.284571217E1,8.558593750E0,-3.318715841E-2,-4.759221077E0
6.289571217E1,8.600426674E0,2.135774642E-1,-5.012602806E0
6.294571217E1,8.496431351E0,7.450962067E-1,-4.936671257E0
6.299571217E1,8.713253021E0,2.135829180E-1,-4.862813473E0
6.304571217E1,8.283273697E0,2.442755401E-1,-4.772146702E0
6.309571217E1,7.816678047E0,6.269920468E-1,-4.584121704E0
6.314571217E1,8.440574646E0,3.800458908E-1,-4.738836288E0
6.319571217E1,8.491697311E0,3.021556735E-1,-4.868029594E0
6.324571217E1,8.439872742E0,3.467860818E-1,-4.888588905E0
6.329571217E1,8.472727776E0,5.740692019E-1,-4.932412148E0
6.334571217E1,8.628193855E0,2.764401734E-1,-4.915120125E0
6.339571217E1,8.445995331E0,3.181964159E-1,-4.933481216E0
6.344571217E1,8.509145737E0,4.061374068E-1,-4.831199646E0
6.349571217E1,8.105855942E0,5.085028410E-1,-4.741720200E0
6.354571217E1,8.532386780E0,3.979656994E-1,-4.805633545E0
6.359571217E1,8.474428177E0,2.296918929E-1,-4.719854355E0
6.364571217E1,8.210250854E0,5.316984057E-1,-4.735230446E0
6.369571217E1,8.576232910E0,4.723134935E-1,-4.805230141E0
6.374571217E1,8.592338562E0,2.923867702E-1,-4.745355129E0
6.379571217E1,8.308464050E0,6.709833145E-1,-4.780903816E0
6.384571217E1,8.346420288E0,3.720979691E-1,-4.702601910E0
6.389571217E1,8.574701309E0,1.521697938E-1,-4.861093521E0
6.394571217E1,8.876852036E0,7.206091881E-1,-4.856311798E0
6.399571217E1,8.070504189E0,2.835656106E-1,-4.610340118E0
6.404571217E1,8.290723801E0,5.614776611E-1,-4.732435226E0
6.409571217E1,8.817672729E0,2.539329529E-1,-4.787587643E0
6.414571217E1,8.260909081E0,4.497845173E-1,-4.674809456E0
6.419571217E1,8.652259827E0,5.731834173E-1,-4.885891914E0
6.424571217E1,8.312915802E0,3.461708128E-1,-4.531310081E0
6.429571217E1,8.157510757E0,9.559398890E-1,-4.809484005E0
6.434571217E1,8.780385971E0,3.076895177E-1,-4.710899353E0
6.439571217E1,8.515121460E0,1.343550384E-1,-4.753329754E0
6.444571217E1,8.310011864E0,8.163034916E-1,-4.796075344E0
6.449571217E1,8.738162041E0,1.922075152E-1,-4.713109970E0
6.454571217E1,8.386257172E0,3.708417416E-1,-4.717365265E0
6.459571217E1,8.295616150E0,8.329848051E-1,-4.687839508E0
6.464571217E1,9.006260872E0,8.187238127E-2,-4.828056335E0
6.469571217E1,8.162007332E0,3.585128486E-1,-4.591767311E0
6.474571217E1,8.454216003E0,6.935451031E-1,-4.641146660E0
6.479571217E1,7.960281372E0,7.000613213E-1,-4.328440666E0
6.484571217E1,8.841243744E0,5.002909303E-1,-4.886931419E0
6.489571217E1,8.780595779E0,2.934616804E-2,-4.748874664E0
6.494571217E1,7.859734535E0,7.353849411E-1,-4.620850086E0
6.499571217E1,8.695020676E0,4.957264066E-1,-4.801676750E0
6.504571217E1,8.445911407E0,4.386311173E-1,-4.593520164E0
6.509571217E1,8.289436340E0,8.734425306E-1,-4.696348190E0
6.514571217E1,8.565401077E0,5.482366681E-1,-4.680693150E0
6.519571217E1,8.423952103E0,5.151257515E-1,-4.690523148E0
6.524571217E1,8.172966003E0,2.954742908E-1,-4.579925060E0
6.529571217E1,8.605524063E0,6.521201134E-1,-4.808568954E0
6.534571217E1,8.557042122E0,9.289183617E-1,-4.979353905E0
6.539571217E1,8.775217056E0,1.437268555E-1,-4.666306973E0
6.544571217E1,8.183498383E0,9.648925066E-1,-4.854946613E0
6.549571217E1,8.281013489E0,2.531776428E-1,-4.695703506E0
6.554571217E1,8.383743286E0,6.985102892E-1,-4.846730232E0
6.559571217E1,8.660339355E0,2.410625964E-1,-4.860248566E0
6.564571217E1,8.114400864E0,8.387749195E-1,-4.830061913E0
6.569571217E1,8.087415695E0,3.765812516E-1,-4.955202103E0
6.574571217E1,8.883735657E0,6.252931356E-1,-4.938396931E0
6.579571217E1,7.435234070E0,1.979581714E-1,-4.985560417E0
6.584571217E1,8.976999283E0,1.752615869E-1,-5.261312008E0
6.589571217E1,8.359474182E0,3.766024709E-1,-5.372895241E0
6.594571217E1,7.488183022E0,4.222004414E-1,-5.030881882E0
6.599571217E1,8.153248787E0,9.212133884E-1,-5.355012894E0
6.604571217E1,7.718007088E0,-1.649310142E-1,-5.042048454E0
6.609571217E1,8.975910187E0,1.494158983E0,-6.356642723E0
6.614571217E1,7.394220352E0,-6.817714572E-1,-4.646557808E0
6.619571217E1,8.129550934E0,-9.043511748E-2,-5.832674980E0
6.624571217E1,7.904793739E0,9.626886249E-1,-5.910933495E0
6.629571217E1,8.933773041E0,5.464228988E-1,-6.127435684E0
6.634571217E1,7.259528637E0,5.389210582E-2,-5.381289482E0
6.639571217E1,8.031526566E0,4.925778508E-1,-5.496147156E0
6.644571217E1,7.651944637E0,-2.901182473E-1,-5.324376106E0
6.649571217E1,7.924060822E0,3.149887025E-1,-5.360291481E0
6.654571217E1,8.370862961E0,8.539557457E-1,-6.271907330E0
6.659571217E1,7.802313805E0,-1.471275985E-1,-5.004245758E0
6.664571217E1,7.179279327E0,1.141809702E0,-5.620677471E0
6.669571217E1,8.282176018E0,4.887371957E-1,-5.311694622E0
6.674571217E1,8.400304794E0,-1.487547159E-1,-5.227850914E0
6.679571217E1,7.931981087E0,8.036904037E-3,-5.033369064E0
6.684571217E1,9.154205322E0,3.778623641E-1,-5.834004402E0
6.689571217E1,6.943455696E0,-3.652803004E-1,-4.794113159E0
6.694571217E1,8.527507782E0,1.616650522E-1,-5.011557579E0
6.699571217E1,9.068262100E0,5.249848962E-1,-5.339298725E0
6.704571217E1,8.129155159E0,-5.154888332E-2,-5.225970268E0
6.709571217E1,8.771350861E0,6.248724461E-1,-4.918581009E0
6.714571217E1,6.635704041E0,2.527895570E-1,-4.832997322E0
6.719571217E1,9.217971802E0,-8.179550618E-2,-5.340604782E0
6.724571217E1,8.236322403E0,-3.756833971E-1,-4.918168068E0
6.729571217E1,8.394069672E0,1.520083398E-1,-5.001607418E0
6.734571217E1,8.061503410E0,4.247338176E-1,-4.657769680E0
6.739571217E1,8.353778839E0,1.904535294E-1,-4.998156548E0
6.744571217E1,8.655955315E0,-2.022814564E-2,-5.277084351E0
6.749571217E1,8.510058403E0,-1.209107786E-1,-4.755459309E0
6.754571217E1,8.345281601E0,2.690834105E-1,-4.852539062E0
6.759571217E1,8.767932892E0,2.402090877E-1,-4.833547115E0
6.764571217E1,9.006400108E0,2.481865138E-1,-4.183568001E0
6.769571217E1,8.393830299E0,1.465475261E-1,-4.449985504E0
6.774571217E1,8.329410553E0,2.843492031E-1,-4.169565201E0
6.779571217E1,7.106522560E0,2.954746187E-1,-1.117531300E0
6.784571217E1,4.859524250E0,-5.720065832E-1,-3.905358791E0
6.789571217E1,8.458017349E0,7.506973743E-1,-3.978671074E0
6.794571217E1,8.306295395E0,-1.777963787E-1,-3.906239748E0
6.799571217E1,9.137697220E0,-2.579264045E-1,-4.259945869E0
6.804571217E1,9.443471909E0,4.431221485E-1,-4.654431343E0
6.809571217E1,9.224735260E0,4.482821822E-1,-3.696858644E0
6.814571217E1,7.151496410E0,-2.750485241E-1,-3.660554171E0
6.819571217E1,9.830528259E0,-1.190115213E-1,-4.530074120E0
6.824571217E1,8.822440147E0,-2.128413171E-1,-3.722933054E0
6.829571217E1,8.290698051E0,-2.097084522E-1,-3.735381126E0
6.834571217E1,8.841510773E0,-4.414163530E-2,-4.029985905E0
6.839571217E1,8.497474670E0,8.351273835E-2,-4.021127224E0
6.844571217E1,9.012239456E0,-6.530316174E-2,-4.569131374E0
6.849571217E1,1.061958408E1,-2.850009799E-1,-4.163944721E0
6.854571217E1,8.581669807E0,-3.873824477E-1,-3.396770477E0
6.859571217E1,9.411563873E0,-5.022950768E-1,-3.665574312E0
6.864571217E1,8.793878555E0,-2.550595403E-1,-3.503223419E0
6.869571217E1,9.176089287E0,-3.461726606E-1,-3.130778313E0
6.874571217E1,9.275977135E0,-3.406523764E-1,-2.507556677E0
6.879571217E1,1.014604950E1,-2.015289515E-1,-2.217111111E0
6.884571217E1,9.425187111E0,-2.827155292E-1,-2.095164299E0
6.889571217E1,9.380464554E0,-8.901343942E-1,-1.790346980E0
6.894571217E1,9.435628891E0,-1.306482553E0,-1.822123289E0
6.899571217E1,9.277397156E0,-4.863284230E-1,-1.341282606E0
6.904571217E1,9.672540665E0,-1.163189560E-1,-9.467546344E-1
6.909571217E1,9.142419815E0,-2.313982993E-1,-8.604858518E-1
6.914571217E1,1.011769485E1,-3.506639600E-1,-8.711722493E-1
6.919571217E1,9.905303955E0,-6.749072075E-1,-1.036397815E0
6.924571217E1,9.754209518E0,-4.181480408E-2,-1.148516178E0
6.929571217E1,1.003878975E1,3.059572875E-1,-8.799777627E-1
6.934571217E1,9.434634209E0,-1.308578700E-1,-8.357161283E-1
6.939571217E1,9.079985619E0,-1.092919260E-1,-1.088926792E0
6.944571217E1,1.012193966E1,-1.089374200E-1,-6.070985794E-1
6.949571217E1,1.016352081E1,-5.956422091E-1,-1.057974577E0
6.954571217E1,9.680990219E0,-5.066862106E-1,-1.101187706E0
6.959571217E1,9.642965317E0,3.542628288E-1,-9.723197222E-1
6.964571217E1,9.572767258E0,2.922639847E-1,-1.206804276E0
6.969571217E1,9.557597160E0,2.090224326E-1,-1.091362476E0
6.974571217E1,1.020455742E1,3.006075919E-1,-9.629368782E-1
6.979571217E1,9.668895721E0,-3.002834693E-2,-1.237104177E0
6.984571217E1,9.350749969E0,6.324326247E-2,-1.205294132E0
6.989571217E1,9.806654930E0,6.728938222E-1,-1.257884145E0
6.994571217E1,9.367233276E0,5.220296383E-1,-1.387230396E0
6.999571217E1,9.439933777E0,7.909641266E-1,-1.186477423E0
7.004571217E1,1.063647079E1,1.978192627E-1,-1.463379025E0
7.009571217E1,9.087919235E0,2.094051689E-1,-1.860147715E0
7.014571217E1,1.000854874E1,5.881381035E-1,-1.286664009E0
7.019571217E1,9.864929199E0,1.013938904E0,-1.300603747E0
7.024571217E1,9.187714577E0,8.919799328E-1,-1.634445906E0
7.029571217E1,9.291736603E0,6.083976030E-1,-1.387622476E0
7.034571217E1,1.014321327E1,1.033539295E0,-1.343869686E0
7.039571217E1,9.444410324E0,6.493247151E-1,-1.802936077E0
7.044571217E1,1.025362015E1,8.229729533E-1,-1.413773298E0
7.049571217E1,9.414365768E0,1.221164942E0,-1.308667541E0
7.054571217E1,9.607799530E0,7.599406838E-1,-1.466062665E0
7.059571217E1,9.544373512E0,7.610458136E-1,-1.432117820E0
7.064571217E1,9.560312271E0,9.182755947E-1,-1.373275995E0
7.069571217E1,9.855201721E0,5.973650217E-1,-1.359652519E0
7.074571217E1,9.470285416E0,9.822145700E-1,-1.256524563E0
7.079571217E1,9.527240753E0,9.089585543E-1,-1.241406918E0
7.084571217E1,9.917377472E0,4.412198663E-1,-1.186126947E0
7.089571217E1,9.889091492E0,8.171131462E-2,-1.565377951E0
7.094571217E1,9.304160118E0,8.010729551E-1,-1.320292473E0
7.099571217E1,9.816114426E0,8.313614130E-1,-1.167022705E0
7.104571217E1,9.679080963E0,5.146596432E-1,-1.357199788E0
7.109571217E1,9.746790886E0,9.290997982E-1,-1.046045661E0
7.114571217E1,9.904953003E0,7.797417641E-1,-9.217936993E-1
7.119571217E1,9.394742012E0,2.535684109E-1,-1.320752621E0
7.124571217E1,9.739963531E0,3.958511949E-1,-1.130927324E0
7.129571217E1,9.602449417E0,8.599541187E-1,-1.075342298E0
7.134571217E1,9.843929291E0,6.123949885E-1,-9.644536972E-1
7.139571217E1,9.818328857E0,6.288224459E-1,-1.032255888E0
7.144571217E1,9.562960625E0,7.976450324E-1,-1.131398678E0
7.149571217E1,9.639059067E0,6.995506287E-1,-1.067337275E0
7.154571217E1,9.837087631E0,5.581817627E-1,-8.915343285E-1
7.159571217E1,9.940652847E0,2.528687119E-1,-9.755535722E-1
7.164571217E1,9.380461693E0,8.110838532E-1,-1.022412181E0
7.169571217E1,9.904373169E0,4.021255970E-1,-1.043728709E0
7.174571217E1,9.778697968E0,5.709044933E-1,-8.703466654E-1
7.179571217E1,1.000080299E1,3.665626943E-1,-8.055032492E-1
7.184571217E1,9.792030334E0,-4.319034144E-2,-8.550413847E-1
7.189571217E1,1.002855873E1,9.990677238E-3,-7.030818462E-1
7.194571217E1,9.525037766E0,4.219322205E-1,-6.859198809E-1
7.199571217E1,9.599435806E0,-3.760395050E-1,-6.024210453E-1
7.204571217E1,9.732637405E0,-3.979280889E-1,-3.457120359E-1
7.209571217E1,9.595789909E0,-6.088017821E-1,-5.428478718E-1
7.214571217E1,9.718476295E0,-2.649397850E-1,-3.818030357E-1
7.219571217E1,9.770283699E0,-9.765517712E-1,-3.947142959E-1
7.224571217E1,9.666909218E0,-4.901806116E-1,-3.119151890E-1
7.229571217E1,9.723569870E0,-8.048707247E-1,-3.413649201E-1
7.234571217E1,9.811182022E0,-6.634962559E-1,-3.153392673E-1
7.239571217E1,1.010915184E1,-2.246439159E-1,-2.296613157E-1
7.244571217E1,9.803001404E0,-6.997585297E-1,-3.362593651E-1
7.249571217E1,9.657533646E0,-5.162984729E-1,-2.976830900E-1
7.254571217E1,9.666689873E0,-1.163594484E0,-1.993144751E-1
7.259571217E1,9.429953575E0,-1.037288904E0,-2.109173834E-1
7.264571217E1,9.733728409E0,-9.451787472E-1,-1.652621925E-1
7.269571217E1,9.434383392E0,-1.146411538E0,-4.049018323E-1
7.274571217E1,1.017624092E1,-9.174448252E-1,2.086833864E-1
7.279571217E1,9.677299500E0,-1.021605372E0,-2.880726457E-1
7.284571217E1,9.762348175E0,-1.017746925E0,-3.327062726E-1
7.289571217E1,9.706264496E0,-8.940698504E-1,-1.157269776E-1
7.294571217E1,9.760526657E0,-1.089581847E0,-1.902302206E-1
7.299571217E1,9.715669632E0,-1.047143221E0,-2.527498901E-1
7.304571217E1,9.669240952E0,-1.240259409E0,-1.337253451E-1
7.309571217E1,9.675769806E0,-1.110823154E0,-1.932228506E-1
7.314571217E1,9.731899261E0,-1.304707050E0,-1.536357999E-1
7.319571217E1,9.779443741E0,-1.178546667E0,-3.241593391E-2
7.324571217E1,9.361160278E0,-9.454110265E-1,-2.380119860E-1
7.329571217E1,9.642203331E0,-1.265791416E0,-2.692207098E-1
7.334571217E1,9.623889923E0,-1.240421295E0,-1.494498551E-1
7.339571217E1,9.742349625E0,-1.016600609E0,-1.498872936E-1
7.344571217E1,1.011044788E1,-5.896726847E-1,-1.855653226E-1
7.349571217E1,1.005168629E1,-6.938873529E-1,7.812392898E-3
7.354571217E1,9.652151108E0,-6.799269915E-1,-1.125429273E-1
7.359571217E1,9.435713768E0,-5.569802523E-1,-4.365259707E-1
7.364571217E1,9.819364548E0,-4.662497640E-1,1.581309587E-1
7.369571217E1,9.820919991E0,-6.462576389E-1,-1.554800943E-2
7.374571217E1,9.404953003E0,-4.133115709E-1,-3.025782108E-1
7.379571217E1,1.012384415E1,-3.394744098E-1,1.228425503E-1
7.384571217E1,9.584709167E0,-3.503738642E-1,-3.734591305E-1
7.389571217E1,9.780128479E0,5.375581980E-2,-1.445914507E-1
7.394571217E1,9.855403900E0,-2.584277391E-1,-1.374734640E-1
7.399571217E1,9.807128906E0,-1.508371830E-1,-5.094611645E-1
7.404571217E1,1.012666225E1,-8.370549679E-1,-1.548667401E-1
7.409571217E1,9.540729523E0,-3.023185730E-1,-5.287272930E-1
7.414571217E1,9.973152161E0,4.169015884E-1,-2.887406200E-2
7.419571217E1,9.621206284E0,5.745969713E-2,-6.009179354E-1
7.424571217E1,1.006643295E1,-1.407557130E-1,-1.257331371E-1
7.429571217E1,9.122413635E0,-4.609324336E-1,-9.643680453E-1
7.434571217E1,9.879859924E0,5.141139627E-1,-7.020871043E-1
7.439571217E1,9.842959404E0,-6.548268795E-1,-5.550627112E-1
7.444571217E1,9.849939346E0,3.011573553E-1,-9.447247982E-1
7.449571217E1,9.725072861E0,-3.666876256E-1,-1.028910398E0
7.454571217E1,9.309730530E0,1.602771282E0,-3.113941908E0
7.459571217E1,9.572399139E0,-1.040304899E0,-9.310201406E-1
7.464571217E1,1.002635860E1,1.416760087E-1,-1.550559759E0
7.469571217E1,9.525533676E0,-1.029580593E0,-1.685054183E0
7.474571217E1,9.957204819E0,-4.933155179E-1,-1.606680989E0
7.479571217E1,9.311212540E0,7.809517980E-1,-1.203214169E0
7.484571217E1,9.598867416E0,-4.806299806E-1,-1.156871676E0
7.489571217E1,9.807706833E0,-4.842877686E-1,-1.489828110E0
7.494571217E1,9.746506691E0,-7.033504248E-1,-1.771709681E0
7.499571217E1,9.904718399E0,-2.264356315E-1,-1.386523128E0
7.504571217E1,9.535022736E0,-1.301963091E0,-1.141586781E0
7.509571217E1,9.793149948E0,-7.525508404E-1,-1.593312263E0
7.514571217E1,9.302624702E0,-6.368313432E-1,-8.911728263E-1
7.519571217E1,9.437892914E0,-1.866199493E0,-1.485839367E0
7.524571217E1,9.599445343E0,-1.567054868E0,-1.142634988E0
7.529571217E1,9.484827995E0,-1.290640354E0,-1.268776655E0
7.534571217E1,9.537416458E0,-1.250382662E0,-1.537645578E0
7.539571217E1,9.772562027E0,-2.154107332E0,-1.227903962E0
7.544571217E1,9.590203285E0,-1.436208963E0,-1.507731676E0
7.549571217E1,9.182009697E0,-1.498318911E0,-1.199923635E0
7.554571217E1,9.510992050E0,-1.594431639E0,-9.908885360E-1
7.559571217E1,9.691555023E0,-1.746690750E0,-1.615340948E0
7.564571217E1,9.350038528E0,-1.634066343E0,-1.031801105E0
7.569571217E1,9.406244278E0,-1.555219054E0,-1.260967374E0
7.574571217E1,9.326244354E0,-1.325811267E0,-1.970657468E0
7.579571217E1,9.597639084E0,-4.950107336E-1,-9.889988303E-1
7.584571217E1,1.018672752E1,-2.630519867E0,-1.000233293E0
7.589571217E1,9.802495956E0,-8.915426135E-1,-1.667646766E0
7.594571217E1,9.803533554E0,-1.476241231E0,-1.314998865E0
7.599571217E1,9.378191948E0,-1.360831261E0,-1.129375458E0
7.604571217E1,9.827980995E0,-1.685172915E0,-1.306766510E0
7.609571217E1,9.322496414E0,-1.059015274E0,-1.102108121E0
7.614571217E1,9.552459717E0,-1.496241093E0,-1.091481566E0
7.619571217E1,9.394454956E0,-1.637639046E0,-1.529670000E0
7.624571217E1,1.005767059E1,-1.611036539E0,-9.290825725E-1
7.629571217E1,9.486627579E0,-1.794843554E0,-1.050489545E0
7.634571217E1,9.780017853E0,-1.437525034E0,-8.630132675E-1
7.639571217E1,9.400430679E0,-3.152396679E0,-9.015825987E-1
7.644571217E1,1.046304321E1,-1.961420178E0,-1.225704551E0
7.649571217E1,8.273734093E0,-1.391340137E0,-7.043166161E-1
7.654571217E1,9.504728317E0,-3.518291473E0,-2.677478790E-1
7.659571217E1,9.689584732E0,-2.173108816E0,1.515487581E-1
7.664571217E1,9.843204498E0,-1.520432711E0,-5.850523710E-1
7.669571217E1,8.762255669E0,-2.717066288E0,5.057052895E-2
7.674571217E1,9.438189507E0,-2.657084703E0,-7.621936500E-2
7.679571217E1,9.869585037E0,-2.510330677E0,-5.730242729E-1
7.684571217E1,9.419474602E0,-2.851016998E0,-5.799128860E-2
7.689571217E1,9.703874588E0,-2.117999077E0,-7.249476910E-1
7.694571217E1,8.704606056E0,-2.924589157E0,-3.633073717E-2
7.699571217E1,8.844645500E0,-3.646044731E0,-6.846640259E-2
7.704571217E1,1.004092693E1,-1.505222321E0,-4.372369051E-1
7.709571217E1,9.512159348E0,-1.682773352E0,-4.797765911E-1
7.714571217E1,9.254505157E0,-2.488523006E0,-5.477185249E-1
7.719571217E1,9.511433601E0,-3.057157993E0,-1.251604080E0
7.724571217E1,8.935831070E0,-2.472464561E0,-1.944226325E-1
7.729571217E1,1.057338142E1,-1.408074498E0,-5.591071248E-1
7.734571217E1,9.709224701E0,-1.102443457E0,-1.310926437E0
7.739571217E1,9.675014496E0,-1.993880272E0,-3.687520027E-1
7.744571217E1,9.603931427E0,-2.085886002E0,-8.149598241E-1
7.749571217E1,9.361188889E0,-1.806500316E0,-9.351105690E-1
7.754571217E1,9.911473274E0,-1.490545750E0,-1.117920041E0
7.759571217E1,8.943284988E0,-1.357811213E0,1.685852706E-1
7.764571217E1,9.655203819E0,-2.151261806E0,-1.529790640E0
7.769571217E1,9.871430397E0,-9.749100208E-1,-8.743834496E-1
7.774571217E1,9.614068985E0,-2.365854263E0,-1.072558761E0
7.779571217E1,9.453910828E0,-1.203112841E0,-7.068232298E-1
7.784571217E1,9.718204498E0,-1.369083405E0,-1.307893038E0
7.789571217E1,9.853321075E0,-1.662820339E0,-1.031369328E0
7.794571217E1,9.609231949E0,-2.044671297E0,-1.046623945E0
7.799571217E1,1.028706932E1,-3.257714272E0,-1.128652334E0
7.804571217E1,8.122554779E0,-8.988127112E-1,-5.089539886E-1
7.809571217E1,9.196382523E0,-2.990481853E0,-6.754113436E-1
7.814571217E1,9.940559387E0,-1.028133392E0,-3.102961481E-1
7.819571217E1,9.096502304E0,-2.244246960E0,-9.793573618E-1
7.824571217E1,9.609086990E0,-2.014114618E0,-1.179766655E0
7.829571217E1,1.000720406E1,-1.815327644E0,-5.432311296E-1
7.834571217E1,9.043935776E0,-2.744511843E0,-1.255035877E0
7.839571217E1,9.635945320E0,-2.362846851E0,-9.598174095E-1
7.844571217E1,9.852448463E0,-1.601985574E0,-1.143723011E0
7.849571217E1,9.218776703E0,-8.942289948E-1,-1.530419588E0
7.854571217E1,9.693393707E0,-1.763401628E0,-1.320306301E0
7.859571217E1,9.833929062E0,-1.688210726E0,-1.499808669E0
7.864571217E1,1.040118408E1,-2.171549797E0,-2.022537708E0
7.869571217E1,9.898569107E0,-1.988556385E0,-1.541198015E0
7.874571217E1,8.507972717E0,-9.429595470E-1,-9.920288324E-1
7.879571217E1,9.528377533E0,-2.402834892E0,-7.073398829E-1
7.884571217E1,9.497105598E0,-3.462256193E0,-1.444934368E0
7.889571217E1,9.356176376E0,-1.418205619E0,-9.028642178E-1
7.894571217E1,9.123373032E0,-2.913521767E0,-6.926630735E-1
7.899571217E1,9.521707535E0,-2.573507309E0,-1.124734640E0
7.904571217E1,9.447759628E0,-2.451479435E0,-7.435947657E-1
7.909571217E1,9.250343323E0,-2.133895874E0,-1.051565647E0
7.914571217E1,9.548372269E0,-3.051675320E0,-1.020314693E0
7.919571217E1,9.626091003E0,-2.458654642E0,-9.571194649E-1
7.924571217E1,1.070100880E1,-2.094978333E0,-1.180957317E0
7.929571217E1,8.462697029E0,-3.704457521E0,-3.467607498E-1
7.934571217E1,8.678770065E0,-3.339694977E0,-1.652851105E-1
7.939571217E1,9.065624237E0,-3.908738613E0,2.821779437E-2
7.944571217E1,9.261417389E0,-2.982707977E0,-3.201974034E-1
7.949571217E1,8.998413086E0,-3.400400639E0,4.877540097E-2
7.954571217E1,9.107992172E0,-4.413938522E0,1.664741337E-1
7.959571217E1,8.966831207E0,-3.539512634E0,1.164951175E-1
7.964571217E1,8.991939545E0,-3.750852108E0,2.589268684E-1
7.969571217E1,8.904010773E0,-4.020406246E0,3.100621700E-1
7.974571217E1,8.939863205E0,-4.293021202E0,2.126379907E-1
7.979571217E1,9.472640038E0,-3.983783245E0,5.612183809E-1
7.984571217E1,8.492635727E0,-4.991275787E0,7.894455194E-1
7.989571217E1,8.650918961E0,-3.974439621E0,5.592347383E-1
7.994571217E1,8.790690422E0,-4.018708229E0,7.748680115E-1
7.999571217E1,8.686132431E0,-4.057888508E0,7.423688769E-1
8.004571217E1,8.638763428E0,-4.469461918E0,1.002819777E0
8.009571217E1,8.679154396E0,-4.167778015E0,9.041439295E-1
8.014571217E1,8.512265205E0,-4.601733208E0,9.280871153E-1
8.019571217E1,8.673250198E0,-4.164209366E0,8.432292938E-1
8.024571217E1,9.049528122E0,-4.251685143E0,8.588195443E-1
8.029571217E1,8.898605347E0,-4.210828781E0,7.546913028E-1
8.034571217E1,8.354516983E0,-4.645351410E0,9.932388663E-1
8.039571217E1,8.634656906E0,-4.187247753E0,7.264385223E-1
8.044571217E1,8.727183342E0,-3.880360126E0,6.496570110E-1
8.049571217E1,9.174203873E0,-4.175486565E0,4.626256824E-1
8.054571217E1,8.635025024E0,-3.790494680E0,4.061164856E-1
8.059571217E1,9.146081924E0,-3.876832962E0,1.375698447E-1
8.064571217E1,9.437614441E0,-3.753926754E0,-6.853216141E-2
8.069571217E1,9.546568871E0,-3.915838003E0,-1.354375333E-1
8.074571217E1,9.286890030E0,-3.510960579E0,-3.187791109E-1
8.079571217E1,8.723021507E0,-2.820735931E0,-2.173777483E-2
8.084571217E1,9.304468155E0,-3.231816292E0,-2.891246080E-1
8.089571217E1,9.037053108E0,-2.800854206E0,-2.301684767E-1
8.094571217E1,9.208522797E0,-2.809892178E0,-4.372162819E-1
8.099571217E1,9.938176155E0,-3.039521217E0,-9.489418864E-1
8.104571217E1,9.632392883E0,-2.466990471E0,-1.016030788E0
8.109571217E1,9.183309555E0,-1.987787247E0,-6.658853889E-1
8.114571217E1,9.184600830E0,-1.734515667E0,-7.710440159E-1
8.119571217E1,9.240076065E0,-1.322064519E0,-1.124505043E0
8.124571217E1,9.911310196E0,-1.756992817E0,-1.456445694E0
8.129571217E1,1.019142437E1,-1.285599232E0,-1.856523514E0
8.134571217E1,9.848133087E0,-1.028295279E0,-1.614283562E0
8.139571217E1,9.165580750E0,-4.118663967E-1,-1.481824517E0
8.144571217E1,9.416173935E0,-3.586619496E-1,-1.583176494E0
8.149571217E1,9.541591644E0,-2.162003815E-1,-1.689792156E0
8.154571217E1,9.976768494E0,-3.515895009E-1,-2.001653910E0
8.159571217E1,9.808013916E0,-2.094927430E-1,-2.102111340E0
8.164571217E1,9.496940613E0,2.889291644E-1,-2.006094456E0
8.169571217E1,9.347816467E0,3.923315406E-1,-1.785336256E0
8.174571217E1,9.687131882E0,2.319433689E-1,-2.107607126E0
8.179571217E1,9.921973228E0,9.238184988E-2,-2.176995277E0
8.184571217E1,9.342345238E0,5.502025485E-1,-1.863702059E0
8.189571217E1,9.573040009E0,4.177930057E-1,-1.982255459E0
8.194571217E1,9.516504288E0,3.639142513E-1,-1.985330224E0
8.199571217E1,9.655697823E0,3.620685637E-1,-1.978708982E0
8.204571217E1,9.673734665E0,1.625527442E-1,-1.976468801E0
8.209571217E1,9.363143921E0,6.950393319E-1,-1.883260489E0
8.214571217E1,9.699892044E0,1.366609037E-1,-2.007310390E0
8.219571217E1,9.634109497E0,3.277524412E-1,-1.976186514E0
8.224571217E1,9.205694199E0,7.507616282E-1,-1.999328613E0
8.229571217E1,9.798850060E0,-4.470429569E-2,-1.882275820E0
8.234571217E1,9.734910965E0,4.868533015E-1,-2.089692354E0
8.239571217E1,9.641202927E0,2.545267940E-1,-1.965443730E0
8.244571217E1,9.527750015E0,4.456309080E-1,-1.690113187E0
8.249571217E1,9.632926941E0,7.109784335E-2,-1.998927593E0
8.254571217E1,9.682312012E0,1.593553573E-1,-1.696828842E0
8.259571217E1,9.539113998E0,7.321749628E-2,-1.832223535E0
8.264571217E1,9.722425461E0,-2.290840298E-1,-1.683031321E0
8.269571217E1,9.419298172E0,-1.348589808E-1,-1.311829090E0
8.274571217E1,9.846685410E0,-3.321056962E-1,-1.432792902E0
8.279571217E1,1.027714729E1,8.658893108E-1,-1.443308115E0
8.284571217E1,9.106393814E0,-2.332826108E-1,-1.096013069E0
8.289571217E1,9.591493607E0,-2.844685555E0,-6.774334908E-1
8.294571217E1,9.519102097E0,-8.345258236E-1,-7.372108698E-1
8.299571217E1,9.478086472E0,-9.632521868E-1,-9.302364588E-1
8.304571217E1,9.722115517E0,-2.748318315E-1,-6.392261982E-1
8.309571217E1,9.819211960E0,-7.962033749E-1,-5.298523307E-1
8.314571217E1,9.488276482E0,-2.215226650E0,-8.921554089E-1
8.319571217E1,9.622827530E0,-1.340075493E0,-7.999588251E-1
8.324571217E1,9.966365814E0,-1.282710582E-1,-1.612679958E-1
8.329571217E1,1.002156448E1,-1.725842118E0,-6.672276258E-1
8.334571217E1,9.240482330E0,-9.427084923E-1,-1.008434415E0
8.339571217E1,1.034312820E1,-1.487282276E0,-7.498199344E-1
8.344571217E1,9.937118530E0,-2.288740635E0,-3.798571527E-1
8.349571217E1,9.092794418E0,-1.824750185E0,-6.650688052E-1
8.354571217E1,8.981698990E0,-2.434144497E0,-1.511897564E0
8.359571217E1,9.767196655E0,-1.097387314E0,-1.125818968E0
8.364571217E1,1.018379688E1,-8.334053755E-1,-6.921883821E-1
8.369571217E1,9.602851868E0,-9.221406579E-1,-1.290068388E0
8.374571217E1,9.519585609E0,-2.097460270E0,-8.177009821E-1
8.379571217E1,9.848443985E0,-1.017030001E0,-1.082577944E0
8.384571217E1,9.443178177E0,-1.773034811E0,-1.279796720E0
8.389571217E1,9.193288803E0,-2.276039124E0,-1.072192192E0
8.394571217E1,9.731052399E0,-1.829620600E0,-1.159686089E0
8.399571217E1,9.319375992E0,-1.066663027E0,-1.164688945E0
8.404571217E1,9.664984703E0,-2.208383083E0,-1.017755985E0
8.409571217E1,9.575059891E0,-1.923172951E0,-1.291905880E0
8.414571217E1,9.841285706E0,-1.803585529E0,-4.954837561E-1
8.419571217E1,9.427548409E0,-1.206907272E0,-6.304783821E-1
8.424571217E1,9.628839493E0,-1.383366585E0,-1.526235819E0
8.429571217E1,9.685385704E0,-2.227525711E0,-6.155388355E-1
8.434571217E1,9.768436432E0,-1.532425165E0,-8.591128588E-1
8.439571217E1,9.458541870E0,-1.589512348E0,-8.463259935E-1
8.444571217E1,9.626015663E0,-1.359724045E0,-8.465235829E-1
8.449571217E1,9.537716866E0,-1.421345472E0,-8.806992769E-1
8.454571217E1,9.935743332E0,-2.130043030E0,-8.058735132E-1
8.459571217E1,9.525695801E0,-1.359173059E0,-9.005419016E-1
8.464571217E1,9.513792038E0,-1.555371761E0,-9.137430191E-1
8.469571217E1,9.927375793E0,-1.793892860E0,-9.116057158E-1
8.474571217E1,9.459671021E0,-1.673932791E0,-7.137205601E-1
8.479571217E1,9.480026245E0,-1.504673719E0,-5.420658588E-1
8.484571217E1,9.689578056E0,-1.723084450E0,-1.044287205E0
8.489571217E1,9.717155457E0,-1.562386274E0,-5.334638357E-1
8.494571217E1,9.482525826E0,-1.669385433E0,-9.141219258E-1
8.499571217E1,9.436098099E0,-1.799396515E0,-7.869521379E-1
8.504571217E1,9.666684151E0,-1.524394155E0,-6.786168218E-1
8.509571217E1,9.554756165E0,-1.805197239E0,-7.872468233E-1
8.514571217E1,9.693724632E0,-1.722109675E0,-7.221206427E-1
8.519571217E1,9.586065292E0,-1.437756538E0,-7.812074423E-1
8.524571217E1,9.599981308E0,-1.596027613E0,-7.479544878E-1
8.529571217E1,9.457777023E0,-1.316944361E0,-6.853038073E-1
8.534571217E1,9.545968056E0,-1.398323536E0,-9.730018377E-1
8.539571217E1,9.901777267E0,-1.771909952E0,-5.388215780E-1
8.544571217E1,9.749201775E0,-9.242905378E-1,-9.838451147E-1
8.549571217E1,9.795212746E0,-1.668159962E0,-7.993509769E-1
8.554571217E1,9.640523911E0,-1.022000074E0,-8.472937346E-1
8.559571217E1,9.629804611E0,-1.415687799E0,-8.174797297E-1
8.564571217E1,9.593738556E0,-1.233288765E0,-7.751899958E-1
8.569571217E1,9.670413971E0,-1.349855661E0,-7.108598351E-1
8.574571217E1,9.653282166E0,-1.147551417E0,-8.960686326E-1
8.579571217E1,9.694839478E0,-1.456787348E0,-6.967669725E-1
8.584571217E1,9.665299416E0,-1.335900307E0,-7.218649387E-1
8.589571217E1,9.234767914E0,-1.887634039E0,-1.115122914E0
8.594571217E1,9.818864822E0,-1.063784003E0,-6.460987329E-1
8.599571217E1,9.669841766E0,-1.175726891E0,-3.219103813E-1
8.604571217E1,9.611757278E0,-1.527543783E0,-6.003177166E-1
8.609571217E1,9.716873169E0,-1.227967143E0,-8.438270092E-1
8.614571217E1,9.635400772E0,-1.539415479E0,-6.283537149E-1
8.619571217E1,9.645071030E0,-1.189980626E0,-7.585208416E-1
8.624571217E1,9.715213776E0,-1.672638297E0,-5.532414317E-1
8.629571217E1,9.606439590E0,-1.228859663E0,-6.599707603E-1
8.634571217E1,9.614459038E0,-1.426416278E0,-6.141083241E-1
8.639571217E1,9.746971130E0,-1.221609116E0,-7.326693535E-1
8.644571217E1,9.603187561E0,-1.568651915E0,-6.051621437E-1
8.649571217E1,9.672961235E0,-1.151973844E0,-5.960006714E-1
8.654571217E1,9.701152802E0,-1.449268699E0,-7.008404136E-1
8.659571217E1,9.757909775E0,-1.690037012E0,-5.368663073E-1
8.664571217E1,9.578907013E0,-9.370980263E-1,-6.864467263E-1
8.669571217E1,9.709893227E0,-1.719905615E0,-5.659058690E-1
8.674571217E1,9.605049133E0,-1.024780869E0,-6.551057100E-1
8.679571217E1,9.713631630E0,-1.597044110E0,-5.672873259E-1
8.684571217E1,9.708549500E0,-1.219408035E0,-6.075328588E-1
8.689571217E1,9.670373917E0,-1.293753743E0,-6.220335960E-1
8.694571217E1,9.672061920E0,-1.442138910E0,-5.524476171E-1
8.699571217E1,9.633718491E0,-1.185838461E0,-6.729352474E-1
8.704571217E1,9.680002213E0,-1.497332573E0,-5.516753197E-1
8.709571217E1,9.620256424E0,-1.258673191E0,-6.380356550E-1
8.714571217E1,9.651268959E0,-1.329973102E0,-5.582305193E-1
8.719571217E1,9.726898193E0,-1.308427215E0,-6.640886068E-1
8.724571217E1,9.658792496E0,-1.469522715E0,-5.894797444E-1
8.729571217E1,9.681055069E0,-1.253174067E0,-6.146512628E-1
8.734571217E1,9.656421661E0,-1.143799305E0,-6.353017092E-1
8.739571217E1,9.709105492E0,-1.504868507E0,-6.521300077E-1
8.744571217E1,9.669107437E0,-1.095408678E0,-5.818542242E-1
8.749571217E1,9.676303864E0,-1.321220160E0,-6.676415801E-1
8.754571217E1,9.667555809E0,-1.332061291E0,-5.905553102E-1
8.759571217E1,9.672576904E0,-1.187216401E0,-6.513194442E-1
8.764571217E1,9.669080734E0,-1.415002108E0,-5.789644122E-1
8.769571217E1,9.670939445E0,-1.104481936E0,-6.723850965E-1
8.774571217E1,9.669919014E0,-1.457231998E0,-5.654352903E-1
8.779571217E1,9.656131744E0,-1.201331973E0,-6.802630424E-1
8.784571217E1,9.687005997E0,-1.316011667E0,-5.934177637E-1
8.789571217E1,9.704597473E0,-1.215592861E0,-6.503058672E-1
8.794571217E1,9.705465317E0,-1.311640739E0,-5.982126594E-1
8.799571217E1,9.673034668E0,-1.172076941E0,-6.283701658E-1
8.804571217E1,9.696729660E0,-1.266280651E0,-6.416615248E-1
8.809571217E1,9.665521622E0,-1.388725281E0,-6.224749088E-1
8.814571217E1,9.661062241E0,-1.026305318E0,-6.580312252E-1
8.819571217E1,9.686894417E0,-1.393638372E0,-6.294082999E-1
8.824571217E1,9.649302483E0,-1.158399820E0,-6.077551842E-1
8.829571217E1,9.710338593E0,-1.240996599E0,-6.638686061E-1
8.834571217E1,9.634960175E0,-1.295532227E0,-6.052228212E-1
8.839571217E1,9.713098526E0,-1.187433243E0,-6.676102877E-1
8.844571217E1,9.667148590E0,-1.284088135E0,-6.349928379E-1
8.849571217E1,9.719449997E0,-1.207582831E0,-6.597702503E-1
8.854571217E1,9.628007889E0,-1.266990900E0,-6.080039144E-1
8.859571217E1,9.677752495E0,-1.208978534E0,-6.500817537E-1
8.864571217E1,9.686092377E0,-1.588534832E0,-6.499642134E-1
8.869571217E1,9.751888275E0,-1.027664542E0,-6.275101304E-1
8.874571217E1,9.738454819E0,-1.218431950E0,-6.766931415E-1
8.879571217E1,9.712735176E0,-1.176774263E0,-6.187926531E-1
8.884571217E1,9.657016754E0,-1.205307484E0,-6.621941328E-1
8.889571217E1,9.626492500E0,-1.276720762E0,-6.215012074E-1
8.894571217E1,9.730847359E0,-1.367059350E0,-6.091427803E-1
8.899571217E1,9.645950317E0,-1.094516039E0,-6.501336694E-1
8.904571217E1,9.732343674E0,-1.291453838E0,-6.297590733E-1
8.909571217E1,9.659587860E0,-1.170789719E0,-6.462090611E-1
8.914571217E1,9.683366776E0,-1.242794514E0,-6.710041761E-1
8.919571217E1,9.649675369E0,-1.124567628E0,-6.115471125E-1
8.924571217E1,9.751115799E0,-1.160713196E0,-6.803531647E-1
8.929571217E1,9.686569214E0,-1.128262758E0,-6.038104296E-1
8.934571217E1,9.709770203E0,-1.206642151E0,-6.856917739E-1
8.939571217E1,9.661535263E0,-1.288375378E0,-6.077997684E-1
8.944571217E1,9.673019409E0,-1.129023075E0,-6.580928564E-1
8.949571217E1,9.684370041E0,-1.190309763E0,-7.009459734E-1
8.954571217E1,9.745018005E0,-1.374892950E0,-6.026240587E-1
8.959571217E1,9.738897324E0,-1.335260153E0,-7.177489996E-1
8.964571217E1,9.701161385E0,-1.360044718E0,-6.157084703E-1
8.969571217E1,9.529375076E0,-1.035435438E0,-5.488042831E-1
8.974571217E1,9.593194962E0,-1.508713126E0,-5.767300129E-1
8.979571217E1,9.681041718E0,-1.369485617E0,-6.740688682E-1
8.984571217E1,9.680391312E0,-1.488813162E0,-5.214639902E-1
8.989571217E1,9.630931854E0,-1.044350863E0,-6.784543991E-1
8.994571217E1,9.639672279E0,-1.694298863E0,-5.643159151E-1
8.999571217E1,9.626279831E0,-1.030599594E0,-6.507687569E-1
9.004571217E1,9.715236664E0,-1.026252985E0,-7.566851377E-1
9.009571217E1,9.788022995E0,-1.507882357E0,-5.389765501E-1
9.014571217E1,9.589860916E0,-9.811674356E-1,-7.801553011E-1
9.019571217E1,9.767831802E0,-1.224135160E0,-5.414329171E-1
9.024571217E1,9.634272575E0,-1.030699968E0,-9.038888812E-1
9.029571217E1,9.974927902E0,-1.184853077E0,-5.430013537E-1
9.034571217E1,9.570514679E0,-1.040194750E0,-7.740007639E-1
9.039571217E1,9.732861519E0,-8.769141436E-1,-5.391309261E-1
9.044571217E1,9.712686539E0,-1.228864431E0,-8.527591825E-1
9.049571217E1,9.596490860E0,-1.249424696E0,-7.123820186E-1
9.054571217E1,9.771135330E0,-9.111863375E-1,-7.614977956E-1
9.059571217E1,9.596992493E0,-1.186000109E0,-6.887822151E-1
9.064571217E1,9.816408157E0,-1.207555771E0,-7.415035367E-1
9.069571217E1,9.520439148E0,-9.621732831E-1,-6.272212267E-1
9.074571217E1,9.736267090E0,-1.283996820E0,-7.357739806E-1
9.079571217E1,9.594192505E0,-9.182604551E-1,-7.650272250E-1
9.084571217E1,9.855699539E0,-1.411090851E0,-8.259530067E-1
9.089571217E1,9.621921539E0,-1.008261204E0,-5.048303604E-1
9.094571217E1,9.492375374E0,-8.266056776E-1,-8.628182411E-1
9.099571217E1,9.871198654E0,-1.341401696E0,-7.439625263E-1
9.104571217E1,9.537044525E0,-9.761986732E-1,-6.794928908E-1
9.109571217E1,9.967782974E0,-1.545119405E0,-8.320943117E-1
9.114571217E1,9.685398102E0,-6.294908524E-1,-7.674955130E-1
9.119571217E1,9.633616447E0,-1.125533342E0,-7.839186192E-1
9.124571217E1,9.689525604E0,-1.121821404E0,-7.976717949E-1
9.129571217E1,9.642127991E0,-9.868849516E-1,-8.642311096E-1
9.134571217E1,9.678169250E0,-1.310656071E0,-6.577406526E-1
9.139571217E1,9.699291229E0,-7.971317768E-1,-8.613688350E-1
9.144571217E1,9.731933594E0,-9.536840320E-1,-7.836787701E-1
9.149571217E1,9.647964478E0,-1.084274054E0,-7.615933418E-1
9.154571217E1,9.700508118E0,-1.206430674E0,-9.029091597E-1
9.159571217E1,9.716959000E0,-6.749700308E-1,-8.543542624E-1
9.164571217E1,9.652812958E0,-9.125670195E-1,-7.867462635E-1
9.169571217E1,9.562097549E0,-1.063847780E0,-9.795765877E-1
9.174571217E1,9.795696259E0,-9.591151476E-1,-8.477132320E-1
9.179571217E1,9.717683792E0,-7.591233253E-1,-9.137552977E-1
9.184571217E1,9.890165329E0,-8.723466396E-1,-8.789563775E-1
9.189571217E1,9.619119644E0,-7.342603207E-1,-9.791552424E-1
9.194571217E1,9.369760513E0,-1.182850718E0,-8.386539221E-1
9.199571217E1,9.810960770E0,-6.568114758E-1,-9.580465555E-1
9.204571217E1,9.832399368E0,-7.092812061E-1,-9.125764370E-1
9.209571217E1,9.712752342E0,-6.591554284E-1,-1.014797926E0
9.214571217E1,9.707130432E0,-8.803758621E-1,-9.260065556E-1
9.219571217E1,9.688680649E0,-6.335158348E-1,-9.523106813E-1
9.224571217E1,9.763588905E0,-8.251843452E-1,-9.644761682E-1
9.229571217E1,9.805091858E0,-8.007482290E-1,-9.461992979E-1
9.234571217E1,9.666129112E0,-6.200993657E-1,-1.099882603E0
9.239571217E1,9.593786240E0,-8.431720734E-1,-8.492905498E-1
9.244571217E1,9.707505226E0,-6.338199377E-1,-9.553948641E-1
9.249571217E1,9.603591919E0,-7.229190469E-1,-1.127161026E0
9.254571217E1,9.735261917E0,-8.865606189E-1,-8.686223626E-1
9.259571217E1,9.949844360E0,-4.952087402E-1,-1.032170177E0
9.264571217E1,9.724874496E0,-4.443185031E-1,-1.061958790E0
9.269571217E1,9.731945992E0,-6.684696078E-1,-1.034217358E0
9.274571217E1,9.588539124E0,-5.189672112E-1,-1.066627860E0
9.279571217E1,9.691834450E0,-4.930962324E-1,-1.005509973E0
9.284571217E1,9.694629669E0,-7.070663571E-1,-1.000417829E0
9.289571217E1,9.716829300E0,-6.740992069E-1,-1.095098495E0
9.294571217E1,9.699913025E0,-5.534193516E-1,-9.475884438E-1
9.299571217E1,9.774282455E0,-7.209022045E-1,-1.074400902E0
9.304571217E1,9.755882263E0,-8.168635368E-1,-9.846473336E-1
9.309571217E1,9.698406219E0,-6.325134039E-1,-1.042190790E0
9.314571217E1,9.573011398E0,-6.998559237E-1,-9.410442114E-1
9.319571217E1,9.582134247E0,-6.529262066E-1,-1.007630944E0
9.324571217E1,9.608739853E0,-6.208184958E-1,-9.223490953E-1
9.329571217E1,9.869222641E0,-9.347684383E-1,-1.049178720E0
9.334571217E1,9.779424667E0,-5.990742445E-1,-1.038769007E0
9.339571217E1,9.643632889E0,-7.713049054E-1,-1.061044931E0
9.344571217E1,9.728649139E0,-7.742290497E-1,-1.028543353E0
9.349571217E1,9.614248276E0,-6.347320676E-1,-9.585847259E-1
9.354571217E1,9.650379181E0,-8.728630543E-1,-9.133147001E-1
9.359571217E1,9.748748779E0,-7.188748121E-1,-9.879049063E-1
9.364571217E1,9.236959457E0,-3.505857885E-1,-1.019848585E0
9.369571217E1,1.011523342E1,-1.020265818E0,-1.163951516E0
9.374571217E1,9.761577606E0,-6.120274663E-1,-9.942132235E-1
9.379571217E1,9.661834717E0,-5.379499793E-1,-1.068821669E0
9.384571217E1,9.625077248E0,-7.548991442E-1,-9.987525344E-1
9.389571217E1,9.662967682E0,-5.854514837E-1,-1.042804003E0
9.394571217E1,9.631132126E0,-5.689134598E-1,-1.097163200E0
9.399571217E1,9.563966751E0,-1.136328697E0,-1.094621658E0
9.404571217E1,9.739788055E0,-2.533687353E-1,-1.119153261E0
9.409571217E1,9.793540001E0,-5.645183921E-1,-1.084790230E0
9.414571217E1,9.658775330E0,-5.361969471E-1,-1.272431135E0
9.419571217E1,9.702211380E0,-7.860769033E-1,-1.089059472E0
9.424571217E1,9.711380005E0,-5.644388199E-1,-1.223308325E0
9.429571217E1,9.704236984E0,-8.637561798E-1,-1.043557882E0
9.434571217E1,9.616884232E0,-3.805328608E-1,-1.199225187E0
9.439571217E1,9.617704391E0,-6.236658096E-1,-1.055390120E0
9.444571217E1,9.735733032E0,-8.835663795E-1,-1.139095545E0
9.449571217E1,9.607576370E0,-5.517507792E-1,-1.096011639E0
9.454571217E1,9.751077652E0,-7.241308093E-1,-1.217698336E0
9.459571217E1,9.700540543E0,-5.547964573E-1,-1.189112425E0
9.464571217E1,9.682561874E0,-7.603769302E-1,-1.067310333E0
9.469571217E1,9.646475792E0,-5.622661114E-1,-1.202221632E0
9.474571217E1,9.702999115E0,-6.925015450E-1,-1.127372265E0
9.479571217E1,9.700601578E0,-5.430396795E-1,-1.217707515E0
9.484571217E1,9.690118790E0,-9.216338396E-1,-1.061240196E0
9.489571217E1,9.675289154E0,-5.555069447E-1,-1.132247210E0
9.494571217E1,9.661953926E0,-6.921904087E-1,-1.156839609E0
9.499571217E1,9.751602173E0,-7.757468820E-1,-1.109302998E0
9.504571217E1,9.732297897E0,-7.681601048E-1,-1.099181652E0
9.509571217E1,9.626731873E0,-5.353743434E-1,-1.145122170E0
9.514571217E1,9.590483665E0,-8.255054951E-1,-1.071543336E0
9.519571217E1,9.350215912E0,-1.342467904E0,-1.404392004E0
9.524571217E1,8.873483658E0,7.555176020E-1,-2.922157526E0
9.529571217E1,9.626152039E0,-5.689216852E-1,-1.165822268E0
9.534571217E1,9.635147095E0,-4.924015999E-1,-1.145947933E0
9.539571217E1,9.539922714E0,-6.108237505E-1,-1.237504005E0
9.544571217E1,9.487409592E0,-4.097526371E-1,-1.243400335E0
9.549571217E1,9.678636551E0,-2.414808720E-1,-1.410109878E0
9.554571217E1,1.003722572E1,-3.505958021E-1,-1.466685891E0
9.559571217E1,9.398843765E0,1.198023856E-1,-1.566359758E0
9.564571217E1,9.467005730E0,-1.601532102E-1,-1.611790419E0
9.569571217E1,9.585521698E0,1.578718722E-1,-1.796499252E0
9.574571217E1,9.975698471E0,2.552613616E-1,-1.670809269E0
9.579571217E1,9.748315811E0,1.600909680E-1,-1.946372747E0
9.584571217E1,9.540259361E0,3.899854720E-1,-1.929991603E0
9.589571217E1,9.479953766E0,5.510630608E-1,-1.889170885E0
9.594571217E1,9.408351898E0,5.166702271E-1,-1.920749784E0
9.599571217E1,9.358654022E0,4.222297072E-1,-2.038973570E0
9.604571217E1,9.752237320E0,5.855903625E-1,-2.123125553E0
9.609571217E1,9.649485588E0,6.196692586E-1,-2.144166946E0
9.614571217E1,9.536087036E0,6.593419313E-1,-2.155807018E0
9.619571217E1,9.512012482E0,6.711773872E-1,-2.095493078E0
9.624571217E1,9.424779892E0,7.251124382E-1,-2.096303940E0
9.629571217E1,9.454918861E0,6.969991922E-1,-2.128446341E0
9.634571217E1,9.500337601E0,6.963742971E-1,-2.135805130E0
9.639571217E1,9.468159676E0,6.471054554E-1,-2.173038960E0
9.644571217E1,9.528961182E0,8.304257393E-1,-2.180024862E0
9.649571217E1,9.394493103E0,8.321881294E-1,-2.128332138E0
9.654571217E1,9.250106812E0,5.695025921E-1,-2.149956465E0
9.659571217E1,9.524015427E0,9.590014219E-1,-2.249197960E0
9.664571217E1,9.684539795E0,1.061827898E0,-2.357240677E0
9.669571217E1,9.416308403E0,9.122717381E-1,-2.299651623E0
9.674571217E1,9.451770782E0,9.508495331E-1,-2.273986101E0
9.679571217E1,9.406546593E0,9.641982317E-1,-2.271742582E0
9.684571217E1,9.434078217E0,9.295237064E-1,-2.236557007E0
9.689571217E1,9.494856834E0,8.563848734E-1,-2.335488081E0
9.694571217E1,9.361944199E0,1.124444246E0,-2.278829098E0
9.699571217E1,9.472221375E0,7.436491251E-1,-2.218377590E0
9.704571217E1,9.413145065E0,1.079696178E0,-2.298402309E0
9.709571217E1,9.471437454E0,7.872897387E-1,-2.242732286E0
9.714571217E1,9.415275574E0,9.956370592E-1,-2.255009651E0
9.719571217E1,9.427528381E0,8.916019201E-1,-2.259800911E0
9.724571217E1,9.480392456E0,8.782340288E-1,-2.250592947E0
9.729571217E1,9.406103134E0,1.007468820E0,-2.259161472E0
9.734571217E1,9.478251457E0,8.454167843E-1,-2.279536724E0
9.739571217E1,9.439687729E0,9.693522453E-1,-2.250795126E0
9.744571217E1,9.444547653E0,8.721327782E-1,-2.264081955E0
9.749571217E1,9.417095184E0,9.954043627E-1,-2.257586479E0
9.754571217E1,9.453802109E0,8.993937969E-1,-2.253808975E0
9.759571217E1,9.448198318E0,9.344524145E-1,-2.273349047E0
9.764571217E1,9.440652847E0,9.519316554E-1,-2.263438702E0
9.769571217E1,9.443410873E0,9.296934009E-1,-2.268382072E0
9.774571217E1,9.398433685E0,1.021147490E0,-2.262819290E0
9.779571217E1,9.465494156E0,9.239382744E-1,-2.282873869E0
9.784571217E1,9.426826477E0,1.006646395E0,-2.273181915E0
9.789571217E1,9.434453011E0,9.592818022E-1,-2.286409855E0
9.794571217E1,9.454379082E0,9.699329138E-1,-2.264996052E0
9.799571217E1,9.430112839E0,9.833093286E-1,-2.283912659E0
9.804571217E1,9.415889740E0,1.013950825E0,-2.287238359E0
9.809571217E1,9.443716049E0,9.681190252E-1,-2.287864923E0
9.814571217E1,9.418920517E0,1.005020022E0,-2.271379948E0
9.819571217E1,9.427528381E0,9.894931316E-1,-2.284650803E0
9.824571217E1,9.429644585E0,1.009415627E0,-2.276801586E0
9.829571217E1,9.439730644E0,1.008642912E0,-2.284448624E0
9.834571217E1,9.415614128E0,9.748603702E-1,-2.278636456E0
9.839571217E1,9.430879593E0,1.048952579E0,-2.290157795E0
9.844571217E1,9.434776306E0,9.781318307E-1,-2.296959400E0
9.849571217E1,9.421737671E0,1.040735006E0,-2.278083801E0
9.854571217E1,9.423957825E0,1.012349725E0,-2.293814182E0
9.859571217E1,9.404611588E0,1.042993307E0,-2.279638529E0
9.864571217E1,9.430303574E0,1.023689866E0,-2.307577133E0
9.869571217E1,9.447696686E0,9.913373590E-1,-2.290527821E0
9.874571217E1,9.417490005E0,1.042375326E0,-2.282198191E0
9.879571217E1,9.412420273E0,1.021720171E0,-2.301838636E0
9.884571217E1,9.426326752E0,1.019012690E0,-2.285131454E0
9.889571217E1,9.428203583E0,1.014879465E0,-2.303785324E0
9.894571217E1,9.427703857E0,1.023589373E0,-2.276529789E0
9.899571217E1,9.417125702E0,1.021531582E0,-2.301349878E0
9.904571217E1,9.421174049E0,1.041352391E0,-2.290953636E0
9.909571217E1,9.427622795E0,1.005677938E0,-2.294003010E0
9.914571217E1,9.429979324E0,1.025664330E0,-2.302607536E0
9.919571217E1,9.422132492E0,1.027822495E0,-2.288463116E0
9.924571217E1,9.420529366E0,1.027994394E0,-2.286919117E0
9.929571217E1,9.407459259E0,1.037839413E0,-2.284644127E0
9.934571217E1,9.430367470E0,1.021588564E0,-2.294359207E0
9.939571217E1,9.432132721E0,1.027290821E0,-2.297558784E0
9.944571217E1,9.421728134E0,1.031520605E0,-2.289844513E0
9.949571217E1,9.410757065E0,1.033018351E0,-2.287864685E0
9.954571217E1,9.428340912E0,1.056856394E0,-2.300226450E0
9.959571217E1,9.416066170E0,1.011689067E0,-2.278152943E0
9.964571217E1,9.421894073E0,1.048336625E0,-2.309659004E0
9.969571217E1,9.430477142E0,1.039872169E0,-2.296922207E0
9.974571217E1,9.418468475E0,1.048448324E0,-2.304135084E0
9.979571217E1,9.414304733E0,1.039097071E0,-2.291228771E0
9.984571217E1,9.422843933E0,1.061107635E0,-2.306539774E0
9.989571217E1,9.426532745E0,1.049209833E0,-2.282131910E0
9.994571217E1,9.422016144E0,1.054239750E0,-2.297975540E0
9.999571217E1,9.421736717E0,1.038124561E0,-2.299530268E0
1.000457122E2,9.419752121E0,1.046818614E0,-2.290591478E0
1.000957122E2,9.414032936E0,1.068068266E0,-2.292966843E0
1.001457122E2,9.431390762E0,1.029138565E0,-2.291480064E0
1.001957122E2,9.410430908E0,1.068656921E0,-2.285268307E0
1.002457122E2,9.421416283E0,1.049939632E0,-2.304329872E0
1.002957122E2,9.424238205E0,1.049445152E0,-2.297807693E0
1.003457122E2,9.424762726E0,1.029706001E0,-2.299273252E0
1.003957122E2,9.420059204E0,1.063907862E0,-2.295372248E0
1.004457122E2,9.409700394E0,1.053186655E0,-2.289485455E0
1.004957122E2,9.428392410E0,1.057207346E0,-2.297816277E0
1.005457122E2,9.419368744E0,1.036656857E0,-2.286765099E0
1.005957122E2,9.416625977E0,1.087467194E0,-2.301869869E0
1.006457122E2,9.431133270E0,1.017717838E0,-2.284653664E0
1.006957122E2,9.418304443E0,1.064014196E0,-2.302811861E0
1.007457122E2,9.428036690E0,1.055955887E0,-2.300670624E0
1.007957122E2,9.419713974E0,1.031090498E0,-2.285990238E0
1.008457122E2,9.396833420E0,1.080605507E0,-2.304598331E0
1.008957122E2,9.431654930E0,1.031498194E0,-2.300171375E0
1.009457122E2,9.409093857E0,1.057599306E0,-2.294681787E0
1.009957122E2,9.426609039E0,1.055595875E0,-2.287335396E0
1.010457122E2,9.428150177E0,1.041389704E0,-2.304638386E0
1.010957122E2,9.407857895E0,1.084658384E0,-2.290930510E0
1.011457122E2,9.422176361E0,1.032625437E0,-2.292842865E0
1.011957122E2,9.423874855E0,1.039060354E0,-2.304144382E0
1.012457122E2,9.405992508E0,1.071882486E0,-2.294810057E0
1.012957122E2,9.431685448E0,1.043359280E0,-2.297181129E0
1.013457122E2,9.405902863E0,1.055598259E0,-2.289168835E0
1.013957122E2,9.424524307E0,1.058771133E0,-2.303944588E0
1.014457122E2,9.420587540E0,1.046556592E0,-2.281675577E0
1.014957122E2,9.415498734E0,1.065023899E0,-2.303147793E0
1.015457122E2,9.415729523E0,1.051259041E0,-2.293095112E0
1.015957122E2,9.427757263E0,1.034255743E0,-2.298799038E0
1.016457122E2,9.407614708E0,1.092291951E0,-2.303023815E0
1.016957122E2,9.410817146E0,1.047363400E0,-2.291908026E0
1.017457122E2,9.422945023E0,1.067119479E0,-2.311463356E0
1.017957122E2,9.424990654E0,1.039930224E0,-2.302135468E0
1.018457122E2,9.415313721E0,1.065264106E0,-2.297265768E0
1.018957122E2,9.417552948E0,1.063381195E0,-2.302867413E0
1.019457122E2,9.409132004E0,1.057672977E0,-2.297063351E0
1.019957122E2,9.421049118E0,1.068492889E0,-2.308917999E0
1.020457122E2,9.412922859E0,1.080119848E0,-2.306264639E0
1.020957122E2,9.418952942E0,1.039001942E0,-2.286493778E0
1.021457122E2,9.412887573E0,1.085056067E0,-2.317773819E0
1.021957122E2,9.414487839E0,1.061515570E0,-2.295359135E0
1.022457122E2,9.421215057E0,1.054084539E0,-2.303020000E0
1.022957122E2,9.425271988E0,1.113393307E0,-2.325509548E0
