"Time (s)","Gyroscope x (rad/s)","Gyroscope y (rad/s)","Gyroscope z (rad/s)"
1.233768270E-1,-2.988878638E-3,8.333851583E-3,-1.264625345E-3
1.733768270E-1,-2.592585515E-3,6.644162349E-3,-9.894621326E-4
2.233768270E-1,2.456703223E-4,1.263538725E-3,-1.122521469E-3
4.308493810E-1,-4.620580003E-4,1.051946310E-4,-2.170697320E-3
4.808493810E-1,-4.620580003E-4,8.930918993E-4,-1.008805237E-3
5.308493810E-1,-9.887537453E-4,5.141987931E-4,-5.725794472E-5
5.808493810E-1,-6.101792678E-5,9.029604262E-4,-1.256063581E-3
6.308493810E-1,6.032057572E-4,6.428287597E-4,-2.573870355E-3
6.808493810E-1,-2.073145006E-4,7.564335829E-4,-3.120014444E-4
7.308493810E-1,-4.620580003E-4,5.019267555E-4,-1.275792602E-3
7.808493810E-1,-6.510410458E-5,9.268597933E-4,-1.763073495E-3
8.308493810E-1,-2.981028520E-4,7.740312722E-4,-1.122521469E-3
8.808493810E-1,-2.297102474E-4,1.170458156E-3,-1.955437241E-3
9.308493810E-1,-4.620580003E-4,1.051946310E-4,-1.614669454E-3
9.808493810E-1,-4.620580003E-4,5.537392572E-4,-2.772680600E-4
1.030849381E0,-2.745855600E-4,7.736104308E-4,-1.706841518E-3
1.080849381E0,1.438076142E-4,7.737658452E-4,-2.187784994E-3
1.130849381E0,-4.620580003E-4,1.170458156E-3,-7.262614090E-4
1.180849381E0,-4.620580003E-4,1.170458156E-3,-1.122521469E-3
1.230849381E0,-4.620580003E-4,3.156160237E-4,-1.790762413E-3
1.280849381E0,-4.620580003E-4,6.867955672E-4,-8.246857906E-4
1.330849381E0,-4.620580003E-4,3.290371969E-4,-1.791412011E-3
1.380849381E0,-4.620580003E-4,1.170458156E-3,-1.692100079E-3
1.430849381E0,-4.620580003E-4,9.361840785E-4,-1.122521469E-3
1.480849381E0,-4.620580003E-4,5.014241906E-4,-2.025506692E-3
1.530849381E0,-4.620580003E-4,7.738141576E-4,-1.122521469E-3
1.580849381E0,-6.517954171E-5,1.170458156E-3,-1.122521469E-3
1.630849381E0,-5.045020953E-5,1.170458156E-3,-1.122521469E-3
1.680849381E0,-4.620580003E-4,1.170458156E-3,-1.122521469E-3
1.730849381E0,-1.928969286E-4,1.170458156E-3,-7.263055304E-4
1.780849381E0,-4.753796384E-5,-1.731531229E-4,-2.178754658E-3
1.830849381E0,-6.522983313E-5,5.020227982E-4,-1.510171918E-3
1.880849381E0,-9.744514246E-4,6.378263934E-4,-1.122521469E-3
1.930849381E0,-3.582471982E-4,1.170458156E-3,-1.415211707E-3
1.980849381E0,-6.527290680E-5,7.099641953E-4,-1.226513879E-3
2.030849381E0,-1.585055143E-4,5.018883385E-4,-1.519215177E-3
2.080849381E0,-3.690999001E-4,1.483153901E-4,-1.122521469E-3
2.130849381E0,-4.620580003E-4,4.582378315E-4,-1.122521469E-3
2.180849381E0,-4.620580003E-4,1.605356811E-4,-1.122521469E-3
2.230849381E0,-4.620580003E-4,4.466198152E-4,-1.122521469E-3
2.280849381E0,-4.620580003E-4,1.100523397E-3,-1.589207212E-3
2.330849381E0,-4.620580003E-4,1.170458156E-3,-1.122521469E-3
2.380849381E0,1.360005117E-3,7.892091526E-4,-7.259112317E-4
2.430849381E0,-8.267923258E-4,6.630055141E-4,-7.867270615E-4
2.480849381E0,-1.255116891E-3,1.034356072E-3,8.290123660E-4
2.530849381E0,9.996641893E-4,4.669345217E-4,-4.462379962E-3
2.580849381E0,5.017970689E-4,2.066033776E-4,-4.911033320E-4
2.630849381E0,-1.605603378E-3,-2.682831255E-4,1.621509669E-3
2.680849381E0,-1.700357534E-4,4.786637146E-4,-3.793846350E-3
2.730849381E0,1.577587798E-3,6.034575636E-4,-7.252458483E-3
2.780849381E0,-5.868696608E-4,1.408944721E-3,4.642369458E-4
2.830849381E0,-7.340249140E-4,1.442425302E-3,-1.643851050E-3
2.880849381E0,7.048342377E-5,1.033923705E-3,-1.655062661E-3
2.930849381E0,-1.267512795E-3,-2.913268399E-4,-1.122521469E-3
2.980849381E0,8.286768571E-5,1.170458156E-3,-8.986533503E-4
3.030849381E0,1.836759038E-4,7.733980892E-4,-2.413989045E-3
3.080849381E0,-4.698506556E-3,-5.656502768E-2,1.367069781E-3
3.130849381E0,1.281431061E-3,-1.035347104E0,-4.173091799E-2
3.180849381E0,-2.058961615E-2,-2.190146923E0,4.591474310E-2
3.230849381E0,-1.744477637E-2,-2.509820938E0,1.219207942E-1
3.280849381E0,1.927815937E-2,-1.650659204E0,3.370608091E-1
3.330849381E0,4.071804136E-2,-1.264528036E-1,-1.624307334E-1
3.380849381E0,-1.230876967E-1,6.151567698E-1,-4.368082285E-1
3.430849381E0,-4.395380616E-2,1.248104453E0,-4.744067788E-1
3.480849381E0,-2.541637607E-2,6.325486898E-1,-6.552022099E-1
3.530849381E0,7.176098973E-2,-2.673886120E-1,-7.598937154E-1
3.580849381E0,-5.466021597E-3,-1.394947886E0,-1.731464624E0
3.630849381E0,-1.859951317E-1,-1.161652923E0,-1.058551669E0
3.680849381E0,-1.449024975E-1,-1.586907506E0,-7.156818509E-1
3.730849381E0,-6.838824749E-1,-1.097872853E0,-2.207160741E-1
3.780849381E0,-9.109863639E-1,-5.779396892E-1,-2.650206685E-1
3.830849381E0,-6.218495369E-1,-5.381850600E-1,-1.559796184E-1
3.880849381E0,-3.201548159E-1,-1.821510345E-1,1.227915194E-2
3.930849381E0,-1.986474916E-2,3.248797655E-1,-9.829864651E-2
3.980849381E0,1.263184994E-1,3.843076825E-1,-2.686915994E-1
4.030849381E0,3.997032344E-1,7.660737634E-1,-3.452863097E-1
4.080849381E0,5.507308841E-1,2.166394591E-1,-5.039429665E-1
4.130849381E0,5.691522360E-1,-7.783251405E-1,-9.770911336E-1
4.180849381E0,2.113313824E-1,-1.355837464E0,-7.622802258E-1
4.230849381E0,-2.085487545E-2,-9.396799207E-1,7.464966178E-2
4.280849381E0,-6.466624886E-2,-3.197088540E-1,3.415287137E-1
4.330849381E0,3.551782668E-2,-4.071604609E-1,2.963166535E-1
4.380849381E0,2.309723347E-1,-5.779365897E-1,3.748587966E-1
4.430849381E0,4.423372149E-1,-6.952070594E-1,4.240385294E-1
4.480849381E0,4.383647144E-1,-5.761396289E-1,5.689739585E-1
4.530849381E0,5.132489204E-1,-2.764556408E-1,7.937007546E-1
4.580849381E0,5.970566869E-1,-2.315879762E-1,6.477079988E-1
4.630849381E0,1.002462983E0,-2.706042118E-2,5.963827968E-1
4.680849381E0,1.927909374E0,7.283619046E-2,9.650911689E-1
4.730849381E0,1.877068281E0,4.929951951E-2,8.930385709E-1
4.780849381E0,1.474037647E0,2.734522708E-2,4.361985326E-1
4.830849381E0,5.795920491E-1,-7.015788928E-3,1.234778911E-1
4.880849381E0,-3.737732172E-1,3.722326458E-2,6.380772591E-2
4.930849381E0,-8.900300264E-1,8.310333639E-2,3.662073016E-1
4.980849381E0,-1.203543901E0,5.841496587E-2,6.129109859E-1
5.030849381E0,-1.503158450E0,-1.556591392E-1,8.390561342E-1
5.080849381E0,-1.524415731E0,-6.245958805E-1,8.568127751E-1
5.130849381E0,-1.183160067E0,-6.958354115E-1,5.030145049E-1
5.180849381E0,-6.781563759E-1,-9.233622551E-1,1.021595299E-1
5.230849381E0,-3.026341200E-1,-1.367919087E0,7.218417013E-4
5.280849381E0,5.897142738E-2,-1.485220790E0,-7.399731874E-2
5.330849381E0,3.508610725E-1,-8.024824262E-1,-1.056985781E-1
5.380849381E0,4.764586389E-1,-3.535657525E-1,1.443001479E-1
5.430849381E0,6.626447439E-1,-1.749844551E-1,2.697636485E-1
5.480849381E0,9.215974212E-1,-3.393732905E-1,2.286865115E-1
5.530849381E0,1.123347163E0,-3.697983623E-1,3.376696110E-1
5.580849381E0,1.209572196E0,6.189429760E-2,6.213251948E-1
5.630849381E0,1.381696939E0,5.547066331E-1,6.347145438E-1
5.680849381E0,1.589890480E0,7.672232985E-1,4.988335073E-1
5.730849381E0,1.680546045E0,8.206916451E-1,3.968330622E-1
5.780849381E0,1.547914028E0,6.613855958E-1,4.436395764E-1
5.830849381E0,1.235939503E0,1.681248993E-1,5.358569026E-1
5.880849381E0,9.097256660E-1,-7.176911086E-2,5.452889800E-1
5.930849381E0,6.300103068E-1,-3.235483170E-1,4.258037210E-1
5.980849381E0,3.565893471E-1,-3.748596311E-1,2.622640431E-1
6.030849381E0,-2.912004478E-2,-3.882592618E-1,2.665956020E-1
6.080849381E0,-3.994128406E-1,-2.079896033E-1,2.562012970E-1
6.130849381E0,-6.628291607E-1,-1.841484196E-2,1.056374758E-1
6.180849381E0,-8.153883219E-1,-2.274765521E-1,-2.290183753E-1
6.230849381E0,-1.025586486E0,1.280259527E-2,-4.351459146E-1
6.280849381E0,-1.365490675E0,3.879140913E-1,-3.524450660E-1
6.330849381E0,-1.687543869E0,4.667756557E-1,-1.864002645E-1
6.380849381E0,-1.819760799E0,4.651364088E-1,-2.315815687E-1
6.430849381E0,-1.526182890E0,2.093759924E-1,-8.371328115E-1
6.480849381E0,-1.199628115E0,3.628879786E-1,-1.269473076E0
6.530849381E0,-9.760707617E-1,2.420836985E-1,-1.447349072E0
6.580849381E0,-8.734687567E-1,-1.815981418E-1,-1.380345583E0
6.630849381E0,-6.347907186E-1,-4.575736523E-1,-1.149387836E0
6.680849381E0,-3.920932859E-2,-2.947686911E-1,-7.276056409E-1
6.730849381E0,1.675800383E-1,-2.414135449E-2,-5.324226618E-1
6.780849381E0,2.151414603E-1,1.364813745E-1,-4.492090940E-1
6.830849381E0,3.577608168E-1,-2.800203301E-2,-5.996881723E-1
6.880849381E0,4.271732867E-1,-4.018535018E-1,-6.082211137E-1
6.930849381E0,4.348393381E-1,-1.185061783E-1,-4.076389670E-1
6.980849381E0,3.059588373E-1,2.744813263E-1,4.744529352E-2
7.030849381E0,1.660440862E-1,1.744335294E-1,4.716303945E-1
7.080849381E0,-6.308458000E-2,-5.394935608E-1,9.983350039E-1
7.130849381E0,-2.184224725E-1,-4.642597437E-1,1.379657507E0
7.180849381E0,-1.906885207E-1,1.366276741E-1,1.349403858E0
7.230849381E0,3.728484735E-3,4.653587043E-1,8.995104432E-1
7.280849381E0,3.254086673E-1,3.488985300E-1,1.576087177E-1
7.330849381E0,6.045629382E-1,-8.342155488E-4,-4.933130145E-1
7.380849381E0,7.105950117E-1,-1.894684322E-2,-5.837540030E-1
7.430849381E0,7.874016762E-1,-1.017655805E-1,-5.059263706E-1
7.480849381E0,8.127778769E-1,3.664668277E-2,-4.807201922E-1
7.530849381E0,7.125858068E-1,6.432843208E-1,-1.080842167E-1
7.580849381E0,8.635362983E-1,1.565319180E0,1.069883704E-1
7.630849381E0,9.322341681E-1,4.623655379E-1,7.575554252E-1
7.680849381E0,8.508269787E-1,-8.462420106E-1,1.536317348E0
7.730849381E0,9.930285811E-1,-6.581581235E-1,1.664942980E0
7.780849381E0,7.641249895E-1,1.602981053E-2,2.300780535E0
7.830849381E0,3.290123045E-1,6.913343072E-1,3.108361244E0
7.880849381E0,6.019937992E-1,2.911334634E-1,2.508526325E0
7.930849381E0,1.509830713E0,-1.568241119E0,7.926973701E-1
7.980849381E0,2.293417931E0,-1.394530892E0,-6.038417220E-1
8.030849381E0,2.103593588E0,3.019043803E-1,-3.883211911E-1
8.080849381E0,1.178815246E0,1.304279208E0,1.150268197E0
8.130849381E0,5.535906553E-1,-2.461827844E-1,2.313468456E0
8.180849381E0,4.737365544E-1,-1.497352719E0,2.495002031E0
8.230849381E0,1.035805345E0,-8.937453628E-1,1.655695438E0
8.280849381E0,1.817592859E0,-9.974237531E-2,4.045966864E-1
8.330849381E0,1.997921348E0,-1.094541669E0,-3.348192573E-2
8.380849381E0,1.609678745E0,-7.142780423E-1,4.332095981E-1
8.430849381E0,1.180850744E0,4.815326929E-1,9.958032966E-1
8.480849381E0,1.025299788E0,4.064307809E-1,1.130009532E0
8.530849381E0,1.188625932E0,8.914399892E-2,7.635961175E-1
8.580849381E0,1.494395018E0,-2.372127473E-1,1.827041805E-1
8.630849381E0,1.632483006E0,-2.491147667E-1,-1.637578309E-1
8.680849381E0,1.380292535E0,1.868200004E-1,1.109218895E-1
8.730849381E0,9.292214513E-1,2.497431934E-1,7.266421318E-1
8.780849381E0,7.250418067E-1,3.092572093E-1,9.429816604E-1
8.830849381E0,7.995235324E-1,2.792564631E-1,7.292876244E-1
8.880849381E0,1.008514404E0,2.586103678E-1,3.105236888E-1
8.930849381E0,1.147586584E0,1.453373879E-1,1.173365582E-2
8.980849381E0,1.044066429E0,2.500103712E-1,1.278426647E-1
9.030849381E0,7.360281348E-1,4.603502750E-1,5.970579982E-1
9.080849381E0,4.676752985E-1,4.642410874E-1,9.877181649E-1
9.130849381E0,3.350363672E-1,2.027838975E-1,1.146499634E0
9.180849381E0,4.110078216E-1,-1.765039861E-1,9.589077830E-1
9.230849381E0,6.544395089E-1,-2.917305753E-2,5.055823922E-1
9.280849381E0,7.018454075E-1,9.649876505E-2,3.447257280E-1
9.330849381E0,4.951126277E-1,1.611039490E-1,6.011258960E-1
9.380849381E0,2.322628796E-1,1.933543235E-1,9.364688993E-1
9.430849381E0,1.260783970E-1,1.114198640E-1,1.011845946E0
9.480849381E0,2.136451602E-1,1.010339241E-2,8.051757216E-1
9.530849381E0,4.328801632E-1,-2.349250168E-1,3.975671530E-1
9.580849381E0,6.251467466E-1,-7.633779198E-2,5.033175647E-2
9.630849381E0,6.519976854E-1,4.160506725E-1,-1.610248908E-2
9.680849381E0,4.729397595E-1,9.804413468E-2,2.504205108E-1
9.730849381E0,2.378824353E-1,-3.996892869E-1,5.862966776E-1
9.780849381E0,-2.114368975E-2,-5.269450545E-1,9.817182422E-1
9.830849381E0,-7.131142914E-2,-1.479491293E-1,1.026403189E0
9.880849381E0,1.719553024E-1,-5.084723979E-2,5.435075164E-1
9.930849381E0,4.972701371E-1,-2.072744370E-1,-1.309590936E-1
9.980849381E0,6.826589704E-1,-2.871495783E-1,-5.761128068E-1
1.003084938E1,5.815619230E-1,-2.302993238E-1,-5.229431987E-1
1.008084938E1,2.259286344E-1,-2.001927420E-2,-3.963813558E-2
1.013084938E1,-8.129565418E-2,-3.718794882E-2,3.626660407E-1
1.018084938E1,-1.450051069E-1,-1.078327894E-1,3.396504819E-1
1.023084938E1,2.223603055E-2,1.149213966E-2,-6.886287034E-2
1.028084938E1,2.391974032E-1,2.109494805E-1,-5.450313091E-1
1.033084938E1,2.515036762E-1,3.033240438E-1,-6.543487906E-1
1.038084938E1,9.093431383E-2,7.252886891E-2,-4.689139724E-1
1.043084938E1,-1.281664073E-1,-2.707645297E-1,-1.751960218E-1
1.048084938E1,-3.612081409E-1,-3.230357766E-1,1.847732365E-1
1.053084938E1,-4.710321724E-1,2.459023446E-1,3.446527123E-1
1.058084938E1,-3.041837513E-1,4.683601260E-1,2.666953206E-2
1.063084938E1,-9.480430186E-2,1.334024668E-1,-3.973814845E-1
1.068084938E1,-7.786922157E-3,-3.078615069E-1,-5.994783044E-1
1.073084938E1,-1.163573340E-1,-1.735900342E-1,-4.541088045E-1
1.078084938E1,-3.339510858E-1,3.804728389E-1,-1.271444261E-1
1.083084938E1,-4.801970422E-1,2.636022568E-1,8.353368938E-2
1.088084938E1,-5.001072288E-1,-8.159479499E-2,9.179889411E-2
1.093084938E1,-3.803105652E-1,8.904938400E-2,-1.167548597E-1
1.098084938E1,-2.301370949E-1,1.702270508E-1,-3.826819062E-1
1.103084938E1,-1.862815917E-1,-9.093454480E-2,-4.691411257E-1
1.108084938E1,-2.891083658E-1,-1.144218445E-1,-2.887492776E-1
1.113084938E1,-4.672303498E-1,1.021612287E-1,2.715483308E-2
1.118084938E1,-5.601397753E-1,1.484010220E-1,2.032142431E-1
1.123084938E1,-4.872860610E-1,-9.190735221E-2,1.065128669E-1
1.128084938E1,-3.201467097E-1,-7.334663719E-2,-1.362892240E-1
1.133084938E1,-1.790033281E-1,1.073274612E-1,-3.300991356E-1
1.138084938E1,-1.198756769E-1,7.955111563E-2,-3.804602623E-1
1.143084938E1,-1.569111198E-1,1.265832502E-2,-2.679965794E-1
1.148084938E1,3.838842735E-3,1.178218499E-1,-5.741119981E-1
1.153084938E1,1.741225459E-2,-1.695018113E-1,-6.429912448E-1
1.158084938E1,-2.966092527E-1,-1.494270563E-1,4.004167393E-2
1.163084938E1,-2.857392728E-1,1.121715158E-1,1.008265242E-1
1.168084938E1,-8.184222877E-2,7.000324875E-2,-6.689987332E-2
1.173084938E1,2.663978040E-1,-2.782007456E-1,-3.424912989E-1
1.178084938E1,-6.718499213E-2,-6.129675508E-1,1.672880948E-1
1.183084938E1,6.845497526E-3,-8.645148873E-1,-2.281809598E-2
1.188084938E1,-5.216067657E-3,-1.132572293E0,-4.338150844E-3
1.193084938E1,-7.349542342E-3,-1.580804467E0,-4.706445150E-3
1.198084938E1,-9.516798891E-3,-2.201777697E0,-6.044595502E-3
1.203084938E1,5.490524769E-1,-2.139869452E0,7.459777594E-1
1.208084938E1,1.191487551E0,-1.369598269E0,3.197391033E-1
1.213084938E1,1.071257114E0,-1.872996688E-1,-4.610515833E-1
1.218084938E1,7.122956514E-1,-2.055017054E-1,5.868319869E-1
1.223084938E1,4.057707489E-1,-1.031059995E-1,-1.452493966E-1
1.228084938E1,5.402357578E-1,-4.781126678E-1,2.705661952E-1
1.233084938E1,4.320043623E-1,-1.046137452E0,-1.296798978E-2
1.238084938E1,6.919313073E-1,-1.398702025E0,1.229604930E-1
1.243084938E1,5.711246729E-1,-1.376807213E0,2.393541187E-1
1.248084938E1,4.618021846E-2,-1.323002279E-1,7.731460035E-2
1.253084938E1,-2.478898317E-2,2.588843703E-1,-2.010470927E-1
1.258084938E1,2.195824869E-2,-1.764614731E-1,1.612242162E-1
1.263084938E1,1.054925844E-3,8.930169046E-2,-6.674387306E-2
1.268084938E1,-2.339463681E-3,-2.839613520E-2,6.056943163E-2
1.273084938E1,2.119583311E-3,-1.032621711E-1,4.078688845E-2
1.278084938E1,3.358920570E-3,-3.472479433E-2,5.413005129E-3
1.283084938E1,-4.620580003E-4,3.409010358E-3,-1.051521394E-5
1.288084938E1,-2.585258335E-5,-1.124270377E-3,-2.187784994E-3
1.293084938E1,4.217354581E-5,1.006180188E-3,-1.179322135E-3
1.298084938E1,-4.620580003E-4,7.462716894E-4,-1.122521469E-3
1.303084938E1,-6.560073234E-5,7.740010042E-4,-6.047553034E-4
1.308084938E1,-4.620580003E-4,9.139521280E-4,-2.187784994E-3
1.313084938E1,-4.620580003E-4,1.051946310E-4,-1.263233251E-3
1.318084938E1,-4.620580003E-4,9.026321350E-4,-7.266543689E-4
1.323084938E1,-4.620580003E-4,6.296456559E-4,-1.122521469E-3
1.328084938E1,-4.620580003E-4,3.852307564E-4,-1.402557595E-3
1.333084938E1,-4.645739682E-5,6.378263934E-4,-1.257935073E-3
1.338084938E1,-6.545055658E-5,7.922671502E-4,-1.897319686E-3
1.343084938E1,-4.322470631E-4,2.411792520E-4,-1.092710532E-3
1.348084938E1,-9.585218504E-5,2.568573691E-3,-7.335010450E-4
1.353084938E1,-2.299784683E-5,8.249698440E-4,-1.323274104E-3
1.358084938E1,-4.620580003E-4,4.121469799E-3,-5.847626366E-3
1.363084938E1,-1.125784684E-2,1.571833640E-1,-2.121286690E-1
1.368084938E1,1.239701211E-1,2.093964666E-1,-1.207470894E-1
1.373084938E1,3.377445340E-1,-7.414055616E-2,-1.452574041E-2
1.378084938E1,1.866467148E-1,-2.245180681E-2,1.960859634E-2
1.383084938E1,6.999268197E-3,-6.044805981E-3,4.513243213E-2
1.388084938E1,1.988615375E-3,-4.094778746E-2,3.914670274E-2
1.393084938E1,4.735942930E-4,-6.421616301E-3,1.272128429E-4
1.398084938E1,2.186947735E-3,-6.071003620E-3,4.678310826E-2
1.403084938E1,1.044278592E-2,-1.189569831E-1,1.022189409E-1
1.408084938E1,3.748471383E-3,-3.626382351E-2,7.350566797E-3
1.413084938E1,2.068153117E-4,3.263664898E-3,-5.329173058E-3
1.418084938E1,6.032057572E-4,-1.677557710E-3,-6.634508027E-4
1.423084938E1,-4.490653519E-4,1.936687506E-3,-1.011982211E-3
1.428084938E1,-4.620580003E-4,-2.912982891E-4,-1.915022847E-3
1.433084938E1,6.988318637E-5,-1.222581603E-3,6.000639405E-4
1.438084938E1,3.410417121E-4,1.845879829E-3,-2.043499378E-3
1.443084938E1,6.022630259E-5,-1.443524961E-4,-1.518784789E-3
1.448084938E1,-6.551854312E-5,7.514032768E-4,-1.541576348E-3
1.453084938E1,4.814704880E-5,1.170458156E-3,-2.029513475E-3
1.458084938E1,-4.620580003E-4,3.438238055E-4,-1.949155820E-3
1.463084938E1,-6.574019790E-5,1.170458156E-3,-1.621818868E-3
1.468084938E1,-2.010073513E-5,1.170458156E-3,-1.122521469E-3
1.473084938E1,-4.620580003E-4,2.864216221E-4,-1.303748460E-3
1.478084938E1,-4.620580003E-4,7.175678620E-4,-1.338084578E-3
1.483084938E1,-4.620580003E-4,9.779174579E-4,-1.315062167E-3
1.488084938E1,-4.620580003E-4,9.666773258E-4,-1.326302299E-3
1.493084938E1,-4.620580003E-4,7.738593267E-4,-1.983160153E-3
1.498084938E1,1.469487324E-5,6.937053986E-4,-1.995881088E-3
1.503084938E1,3.871168010E-4,1.170458156E-3,-1.122521469E-3
1.508084938E1,-4.620580003E-4,2.857173095E-4,-1.610549050E-3
1.513084938E1,-2.064579166E-5,7.290460635E-4,-1.122521469E-3
1.518084938E1,-4.620580003E-4,6.704364205E-4,-1.122521469E-3
1.523084938E1,-2.218941227E-4,5.015406059E-4,-1.791439019E-3
1.528084938E1,-3.057015128E-4,1.014101785E-3,-1.791085000E-3
1.533084938E1,-4.620580003E-4,3.561604535E-4,-1.122521469E-3
1.538084938E1,6.181327626E-5,2.506144228E-4,-1.122521469E-3
1.543084938E1,-4.620580003E-4,5.102100549E-4,-1.791225281E-3
1.548084938E1,6.801681593E-5,1.037354930E-3,-1.255624695E-3
1.553084938E1,-4.620580003E-4,4.997387296E-4,-1.396717736E-3
1.558084938E1,-4.620580003E-4,1.048844657E-3,-1.244134968E-3
1.563084938E1,-4.620580003E-4,1.170458156E-3,-1.122521469E-3
1.568084938E1,-4.620580003E-4,7.476607570E-4,-1.655153232E-3
1.573084938E1,-4.620580003E-4,4.765482154E-4,-1.790779410E-3
1.578084938E1,-2.921791747E-5,1.034372835E-3,-1.691446989E-3
1.583084938E1,-4.620580003E-4,8.102055872E-4,-1.482774038E-3
1.588084938E1,-4.620580003E-4,2.412257018E-4,-1.607278362E-3
1.593084938E1,-4.620580003E-4,8.504177677E-4,-1.442561857E-3
1.598084938E1,-4.620580003E-4,6.378263934E-4,-1.671352889E-3
1.603084938E1,-4.620580003E-4,4.407769302E-4,-1.456045080E-3
1.608084938E1,-4.620580003E-4,1.504311687E-3,-1.655153232E-3
1.613084938E1,-1.180376858E-4,1.190335839E-3,-1.122521469E-3
1.618084938E1,-4.089488648E-4,3.240137594E-4,-1.684899209E-3
1.623084938E1,-4.620580003E-4,8.139696438E-4,-1.435353886E-3
1.628084938E1,-4.620580003E-4,2.412163303E-4,-1.558901044E-3
1.633084938E1,3.025489859E-4,1.103668124E-3,-1.122521469E-3
1.638084938E1,-5.596317351E-6,6.378263934E-4,-1.122521469E-3
1.643084938E1,-4.620580003E-4,3.956732107E-4,-1.897306531E-3
1.648084938E1,-4.620580003E-4,1.034228480E-3,-1.140376087E-3
1.653084938E1,-4.620580003E-4,8.923191344E-4,-1.519097597E-3
1.658084938E1,-4.620580003E-4,1.170458156E-3,-1.655153232E-3
1.663084938E1,-4.620580003E-4,7.680928102E-4,-1.791681629E-3
1.668084938E1,-3.198748454E-4,6.439205026E-4,-1.264704391E-3
1.673084938E1,-2.074786462E-4,3.597738687E-4,-1.773985685E-3
1.678084938E1,-4.620580003E-4,1.170458156E-3,-1.638266025E-3
1.683084938E1,-3.750994802E-5,7.459101034E-4,-1.122521469E-3
1.688084938E1,-4.620580003E-4,1.170458156E-3,-2.022988396E-3
1.693084938E1,-4.620580003E-4,7.333041867E-4,-1.122521469E-3
1.698084938E1,-4.620580003E-4,2.814050531E-4,-1.122521469E-3
1.703084938E1,-4.620580003E-4,1.170458156E-3,-1.967416611E-3
1.708084938E1,-4.620580003E-4,1.170458156E-3,-1.310734078E-3
1.713084938E1,-4.620580003E-4,1.170458156E-3,-1.727701630E-3
1.718084938E1,-6.552971900E-5,7.011187263E-4,-2.187784994E-3
1.723084938E1,-4.620580003E-4,7.743799360E-4,-1.318988623E-3
1.728084938E1,-4.620580003E-4,5.615263944E-4,-1.975555671E-3
1.733084938E1,-6.498768926E-5,5.887249717E-4,-1.519591780E-3
1.738084938E1,-6.528478116E-5,1.170458156E-3,-1.122521469E-3
1.743084938E1,-4.620580003E-4,6.759001408E-4,-1.617079484E-3
1.748084938E1,-6.545567885E-5,5.017969524E-4,-1.122521469E-3
1.753084938E1,-4.620580003E-4,1.007981366E-3,-1.518947189E-3
1.758084938E1,3.573130816E-4,7.476770552E-4,-1.368414145E-3
1.763084938E1,4.528453574E-4,1.170458156E-3,-1.791615738E-3
1.768084938E1,-2.038127277E-4,7.601120742E-4,-1.519193756E-3
1.773084938E1,-3.234767355E-4,6.406572647E-4,-1.122521469E-3
1.778084938E1,-4.620580003E-4,7.708661724E-4,-1.522113453E-3
1.783084938E1,-4.620580003E-4,7.644245634E-4,-1.538105193E-3
1.788084938E1,-1.807925291E-4,8.891926846E-4,-1.790927025E-3
1.793084938E1,1.661931165E-4,1.034760266E-3,-1.750772353E-3
1.798084938E1,-4.620580003E-4,3.984299256E-4,-1.122521469E-3
1.803084938E1,3.786012530E-5,1.137744519E-3,-1.551951282E-3
1.808084938E1,-4.620580003E-4,4.091913579E-4,-1.519571641E-3
1.813084938E1,2.766959369E-5,1.170458156E-3,-1.122521469E-3
1.818084938E1,-6.555207074E-5,8.552934742E-4,-1.122521469E-3
1.823084938E1,1.525413245E-5,1.605144935E-4,-1.122521469E-3
1.828084938E1,-6.591598503E-5,7.743161405E-4,-1.450937008E-3
1.833084938E1,-4.620580003E-4,1.170458156E-3,-1.655324246E-3
1.838084938E1,-4.620580003E-4,8.315220475E-4,-1.519630663E-3
1.843084938E1,-4.620580003E-4,6.378263934E-4,-1.122521469E-3
1.848084938E1,-6.610341370E-5,-2.799368522E-4,-3.750867327E-4
1.853084938E1,-4.620580003E-4,2.876978833E-4,-1.519121113E-3
1.858084938E1,-4.620580003E-4,2.122058999E-3,-2.244616393E-3
1.863084938E1,3.581540659E-5,9.336761432E-4,-8.614301914E-4
1.868084938E1,-4.620580003E-4,5.560140125E-4,-1.044873148E-3
1.873084938E1,-4.620580003E-4,1.286053448E-4,-1.099110814E-3
1.878084938E1,-4.620580003E-4,9.925024351E-4,-1.509297756E-3
1.883084938E1,6.091594696E-5,6.474844413E-4,-1.655153232E-3
1.888084938E1,-4.620580003E-4,8.995978860E-4,-1.122521469E-3
1.893084938E1,-4.620580003E-4,1.306421007E-3,-2.187784994E-3
1.898084938E1,-4.620580003E-4,1.022189506E-3,-1.382841729E-3
1.903084938E1,-6.554927677E-5,2.535228850E-4,-1.122521469E-3
1.908084938E1,-4.620580003E-4,1.170458156E-3,-1.542816870E-3
1.913084938E1,-6.528152153E-5,1.051946310E-4,-1.122521469E-3
1.918084938E1,-4.620580003E-4,9.335951181E-4,-1.555134309E-3
1.923084938E1,1.071505249E-4,9.975590510E-4,-1.618576702E-3
1.928084938E1,-2.383308019E-4,9.467309574E-4,-1.519415993E-3
1.933084938E1,2.306001261E-5,1.051946310E-4,-1.122521469E-3
1.938084938E1,-4.620580003E-4,9.567461675E-4,-1.122521469E-3
1.943084938E1,-2.665813081E-4,1.170458156E-3,-1.714472659E-3
1.948084938E1,2.063917927E-4,7.736441912E-4,-1.790971030E-3
1.953084938E1,-4.620580003E-4,9.643007070E-4,-1.584836864E-3
1.958084938E1,-6.548315287E-5,5.836595083E-4,-1.122521469E-3
1.963084938E1,-2.441918477E-4,9.525922360E-4,-1.519186888E-3
1.968084938E1,2.064397559E-4,9.915962582E-4,-1.612157095E-3
1.973084938E1,-4.620580003E-4,7.309099892E-4,-1.122521469E-3
1.978084938E1,-4.620580003E-4,1.170458156E-3,-1.519011916E-3
1.983084938E1,-4.620580003E-4,1.170458156E-3,-1.363394083E-3
1.988084938E1,-4.620580003E-4,6.566180382E-4,-1.673944877E-3
1.993084938E1,1.880908385E-4,1.051946310E-4,-1.519114478E-3
1.998084938E1,-3.188399132E-4,1.027240069E-3,-1.519393059E-3
2.003084938E1,3.388500772E-4,1.170458156E-3,-1.519024256E-3
2.008084938E1,-6.121769547E-5,1.165978727E-3,-1.122521469E-3
2.013084938E1,-1.855765004E-4,7.784034824E-4,-1.519248937E-3
2.018084938E1,-3.416817635E-4,6.531338440E-4,-1.534777228E-3
2.023084938E1,-4.620580003E-4,1.170458156E-3,-1.122521469E-3
2.028084938E1,-4.620580003E-4,1.144058187E-3,-2.051924355E-3
2.033084938E1,-6.586033851E-5,5.013921764E-4,-1.518719015E-3
2.038084938E1,-4.233946092E-4,1.034367015E-3,-1.122521469E-3
2.043084938E1,2.064649016E-4,4.157233052E-4,-1.433050260E-3
2.048084938E1,-3.758030944E-4,1.120409812E-3,-1.208776492E-3
2.053084938E1,-4.620580003E-4,4.278296838E-4,-1.122521469E-3
2.058084938E1,7.057376206E-5,1.170458156E-3,-1.643419499E-3
2.063084938E1,-1.274328679E-4,1.170458156E-3,-1.791103045E-3
2.068084938E1,-3.888977226E-4,1.170458156E-3,-1.655153232E-3
2.073084938E1,-1.392187551E-4,1.170458156E-3,-1.468741801E-3
2.078084938E1,7.057376206E-5,2.411550377E-4,-1.172735356E-3
2.083084938E1,-1.509948634E-4,1.170458156E-3,-1.122521469E-3
2.088084938E1,-4.620580003E-4,1.170458156E-3,-2.148062456E-3
2.093084938E1,-4.620580003E-4,8.020197274E-4,-1.422956586E-3
2.098084938E1,-4.620580003E-4,6.098215235E-4,-1.546623651E-3
2.103084938E1,-4.620580003E-4,5.016993964E-4,-1.503563719E-3
2.108084938E1,-4.620580003E-4,2.252116101E-4,-1.655153232E-3
2.113084938E1,-4.620580003E-4,1.170458156E-3,-1.514804899E-3
2.118084938E1,7.057376206E-5,7.696641842E-4,-1.659330330E-3
2.123084938E1,-1.972513273E-4,7.737284759E-4,-1.791055314E-3
2.128084938E1,-4.620580003E-4,6.446501939E-4,-1.122521469E-3
2.133084938E1,-4.663923755E-5,1.170458156E-3,-1.518998411E-3
2.138084938E1,5.174218677E-5,2.599629806E-4,-1.122521469E-3
2.143084938E1,-4.620580003E-4,7.439305773E-4,-1.122521469E-3
2.148084938E1,-2.950034104E-4,1.170458156E-3,-1.289576059E-3
2.153084938E1,6.032057572E-4,7.311140653E-4,-1.748440904E-3
2.158084938E1,-4.620580003E-4,1.170458156E-3,-1.790736103E-3
2.163084938E1,-4.620580003E-4,1.170458156E-3,-1.737537910E-3
2.168084938E1,-2.721692435E-4,5.840293597E-4,-1.601356198E-3
2.173084938E1,-2.553439699E-4,9.637443582E-4,-1.584372018E-3
2.178084938E1,6.032057572E-4,7.737606065E-4,-1.122521469E-3
2.183084938E1,2.067596652E-4,1.170458156E-3,-1.595961163E-3
2.188084938E1,-6.542215124E-5,9.575890144E-4,-1.578280237E-3
2.193084938E1,-4.620580003E-4,9.866274195E-4,-1.519261743E-3
2.198084938E1,2.067603637E-4,7.740129950E-4,-1.963283867E-3
2.203084938E1,-2.900417894E-4,7.738625864E-4,-2.015768783E-3
2.208084938E1,-6.512273103E-5,7.735228864E-4,-1.952148159E-3
2.213084938E1,-4.620580003E-4,2.655606950E-4,-1.517887809E-3
2.218084938E1,-4.313420504E-5,1.170458156E-3,-1.518852776E-3
2.223084938E1,5.932804197E-5,6.490723463E-4,-1.519646379E-3
2.228084938E1,-2.025659196E-4,1.051946310E-4,-1.519636018E-3
2.233084938E1,6.032057572E-4,1.033183769E-3,-1.122521469E-3
2.238084938E1,2.049524337E-4,3.756646765E-4,-1.122521469E-3
2.243084938E1,-3.362915013E-4,7.635928923E-4,-1.529386733E-3
2.248084938E1,-1.790914685E-4,8.874916239E-4,-1.519064419E-3
2.253084938E1,7.057376206E-5,1.272872323E-4,-1.633060630E-3
2.258084938E1,-1.684357412E-4,8.768360130E-4,-1.122521469E-3
2.263084938E1,1.407659147E-4,1.067263307E-3,-2.084590029E-3
2.268084938E1,-4.620580003E-4,8.650029777E-4,-1.882329816E-3
2.273084938E1,-4.620580003E-4,6.378263934E-4,-1.122521469E-3
2.278084938E1,-4.620580003E-4,1.170458156E-3,-1.835903618E-3
2.283084938E1,-4.620580003E-4,1.113382867E-3,-1.258831122E-3
2.288084938E1,-4.620580003E-4,8.311116835E-4,-1.461867942E-3
2.293084938E1,7.188506424E-5,7.050990826E-4,-1.655153232E-3
2.298084938E1,-1.339719165E-4,7.737554843E-4,-1.450607553E-3
2.303084938E1,-4.620580003E-4,1.614789944E-4,-1.598868868E-3
2.308084938E1,-4.620580003E-4,5.017541116E-4,-1.474605408E-3
2.313084938E1,-4.620580003E-4,5.932886852E-4,-1.746563939E-3
2.318084938E1,-4.620580003E-4,8.651741082E-4,-1.791117596E-3
2.323084938E1,-4.620580003E-4,6.711928872E-4,-1.655153232E-3
2.328084938E1,-4.620580003E-4,1.170458156E-3,-1.122521469E-3
2.333084938E1,-3.462089226E-4,1.170458156E-3,-1.539304154E-3
2.338084938E1,2.062479034E-4,1.170458156E-3,-1.519479090E-3
2.343084938E1,-4.568044096E-5,1.170458156E-3,-1.122521469E-3
2.348084938E1,-4.620580003E-4,7.717319531E-4,-1.122521469E-3
2.353084938E1,-4.620580003E-4,1.170458156E-3,-1.122521469E-3
2.358084938E1,-4.620580003E-4,1.170458156E-3,-1.122521469E-3
2.363084938E1,5.713663995E-5,6.512637483E-4,-1.641715877E-3
2.368084938E1,-6.612017751E-5,7.745205658E-4,-1.122521469E-3
2.373084938E1,-2.996148542E-4,6.639645435E-4,-1.122521469E-3
2.378084938E1,1.689950004E-4,7.362476317E-4,-1.122521469E-3
2.383084938E1,3.339932300E-5,9.977353038E-4,-1.122521469E-3
2.388084938E1,3.794669174E-4,9.467195487E-4,-1.122521469E-3
2.393084938E1,2.087187022E-5,2.911610063E-4,-1.704855240E-3
2.398084938E1,-4.316214472E-6,7.735878462E-4,-2.187784994E-3
2.403084938E1,1.312335953E-4,1.170458156E-3,-1.122521469E-3
2.408084938E1,-2.616443671E-4,7.023742655E-4,-1.590605360E-3
2.413084938E1,-6.588990800E-5,9.620370110E-4,-1.583195757E-3
2.418084938E1,1.868605614E-5,5.859386874E-4,-1.519094571E-3
2.423084938E1,-4.620580003E-4,7.735560648E-4,-1.790882903E-3
2.428084938E1,-4.620580003E-4,1.170458156E-3,-1.695808605E-3
2.433084938E1,-2.481718548E-5,1.051946310E-4,-1.559762168E-3
2.438084938E1,-6.562704220E-5,1.005257131E-3,-1.122521469E-3
2.443084938E1,-4.620580003E-4,5.019443342E-4,-1.791035291E-3
2.448084938E1,-4.620580003E-4,1.016560826E-3,-1.672686543E-3
2.453084938E1,-2.069857437E-4,1.170458156E-3,-1.122521469E-3
2.458084938E1,7.614889182E-5,1.170458156E-3,-1.519256039E-3
2.463084938E1,-6.517535076E-5,1.170458156E-3,-1.388492761E-3
2.468084938E1,-4.620580003E-4,7.688134210E-4,-1.258096425E-3
2.473084938E1,-4.620580003E-4,1.170458156E-3,-1.512885792E-3
2.478084938E1,-4.420410842E-4,1.170458156E-3,-1.538883313E-3
2.483084938E1,3.122666385E-4,1.170458156E-3,-1.413460588E-3
2.488084938E1,-7.454073057E-6,1.141612185E-3,-1.229395391E-3
2.493084938E1,-9.409850463E-5,4.056411562E-4,-1.122521469E-3
2.498084938E1,2.992525697E-5,1.170458156E-3,-1.122521469E-3
2.503084938E1,-1.479173079E-4,8.563175797E-4,-1.122521469E-3
2.508084938E1,9.942054749E-5,1.034687040E-3,-1.572844340E-3
2.513084938E1,-4.620580003E-4,8.266371442E-4,-1.446596347E-3
2.518084938E1,7.057376206E-5,1.170458156E-3,-1.665228978E-3
2.523084938E1,-1.291814260E-4,4.380709725E-4,-1.518607140E-3
2.528084938E1,-4.620580003E-4,1.034418237E-3,-1.655153232E-3
2.533084938E1,-4.620580003E-4,8.496824885E-4,-1.840251265E-3
2.538084938E1,-4.620580003E-4,1.170458156E-3,-1.605643425E-3
2.543084938E1,-1.031290740E-4,7.743515307E-4,-1.481450163E-3
2.548084938E1,-4.247240722E-4,2.414096962E-4,-1.593605615E-3
2.553084938E1,-4.620580003E-4,7.996977074E-4,-1.122521469E-3
2.558084938E1,-4.620580003E-4,1.144388574E-3,-1.232186565E-3
2.563084938E1,-7.967161946E-5,1.170458156E-3,-1.791798044E-3
2.568084938E1,-3.811670467E-5,1.170458156E-3,-1.668917947E-3
2.573084938E1,-6.520515308E-5,7.762265159E-4,-1.396700740E-3
2.578084938E1,-4.620580003E-4,7.682242431E-4,-1.122521469E-3
2.583084938E1,-4.620580003E-4,1.170458156E-3,-1.122521469E-3
2.588084938E1,6.032057572E-4,6.291919854E-4,-1.646518824E-3
2.593084938E1,-2.106428146E-4,9.190429701E-4,-1.122521469E-3
2.598084938E1,4.988140427E-5,6.171340356E-4,-1.122521469E-3
2.603084938E1,-4.620580003E-4,5.338665796E-4,-1.551193418E-3
2.608084938E1,-4.620580003E-4,6.059744628E-4,-1.519358135E-3
2.613084938E1,-6.612529978E-5,9.416938992E-4,-1.122521469E-3
2.618084938E1,4.225480370E-4,9.898004355E-4,-1.303179190E-3
2.623084938E1,-9.504845366E-6,5.577476695E-4,-1.338453381E-3
2.628084938E1,-4.620580003E-4,6.934130797E-4,-1.122521469E-3
2.633084938E1,-6.534252316E-5,7.076087641E-4,-1.122521469E-3
2.638084938E1,-4.620580003E-4,7.047158433E-4,-1.518544275E-3
2.643084938E1,1.404201612E-5,6.943582557E-4,-1.122521469E-3
2.648084938E1,-4.620580003E-4,1.170458156E-3,-1.575720729E-3
2.653084938E1,-4.620580003E-4,1.170458156E-3,-1.122521469E-3
2.658084938E1,-4.620580003E-4,7.742198650E-4,-1.122521469E-3
2.663084938E1,-4.620580003E-4,1.170458156E-3,-1.621219912E-3
2.668084938E1,2.064986620E-4,5.356672918E-4,-1.519228565E-3
2.673084938E1,-3.035636619E-4,6.154493894E-4,-1.632776228E-3
2.678084938E1,-4.620580003E-4,1.170458156E-3,-1.791179995E-3
2.683084938E1,-4.620580003E-4,1.170458156E-3,-1.666307333E-3
2.688084938E1,-6.559025496E-5,9.091774700E-4,-1.791317132E-3
2.693084938E1,-6.481492892E-5,1.035069465E-3,-1.257910160E-3
2.698084938E1,-4.620580003E-4,5.013797199E-4,-1.122521469E-3
2.703084938E1,-4.492201842E-4,1.046676771E-3,-1.122521469E-3
2.708084938E1,2.066346351E-4,1.170458156E-3,-1.122521469E-3
2.713084938E1,7.057376206E-5,1.170458156E-3,-1.146626659E-3
2.718084938E1,-4.620580003E-4,7.734781830E-4,-1.790805021E-3
2.723084938E1,-3.075064160E-5,1.170458156E-3,-1.720933476E-3
2.728084938E1,-4.620580003E-4,7.742904127E-4,-1.431294251E-3
2.733084938E1,-4.620580003E-4,6.859082496E-4,-1.655153232E-3
2.738084938E1,-6.497744471E-5,1.170458156E-3,-1.519601909E-3
2.743084938E1,-4.039909691E-4,1.112391124E-3,-1.122521469E-3
2.748084938E1,-1.243045554E-4,4.367027432E-4,-1.454029582E-3
2.753084938E1,5.808426067E-6,6.378263934E-4,-1.719918568E-3
2.758084938E1,-4.620580003E-4,4.479466006E-4,-1.448063646E-3
2.763084938E1,-1.065828837E-5,1.170458156E-3,-1.122521469E-3
2.768084938E1,-4.620580003E-4,1.170458156E-3,-1.518512610E-3
2.773084938E1,-4.620580003E-4,7.320694858E-4,-1.613111119E-3
2.778084938E1,-4.620580003E-4,1.170458156E-3,-1.122521469E-3
2.783084938E1,-3.571824636E-4,6.378263934E-4,-1.624401659E-3
2.788084938E1,-1.704557799E-4,8.788559353E-4,-1.105046947E-3
2.793084938E1,-3.434719983E-4,6.555983564E-4,-1.140293432E-3
2.798084938E1,2.128700726E-4,1.170458156E-3,-1.519451384E-3
2.803084938E1,-5.785468966E-5,1.170458156E-3,-1.122521469E-3
2.808084938E1,-4.620580003E-4,1.170458156E-3,-1.919222763E-3
2.813084938E1,-3.226050176E-4,7.739758585E-4,-1.658456749E-3
2.818084938E1,1.916051842E-4,1.170458156E-3,-2.187784994E-3
2.823084938E1,-4.620580003E-4,1.018531271E-3,-1.518612728E-3
2.828084938E1,-6.555486470E-5,9.260921506E-4,-1.122521469E-3
2.833084938E1,-2.986472100E-4,2.686054213E-4,-1.122521469E-3
2.838084938E1,-2.286680974E-4,7.740032161E-4,-1.122521469E-3
2.843084938E1,2.065701410E-4,7.738227723E-4,-1.297442592E-3
2.848084938E1,-2.403040417E-4,1.170458156E-3,-1.344275312E-3
2.853084938E1,-4.620580003E-4,2.914229408E-4,-1.122521469E-3
2.858084938E1,-4.620580003E-4,7.117461646E-4,-1.122521469E-3
2.863084938E1,-4.620580003E-4,6.999764591E-4,-1.717303414E-3
2.868084938E1,-4.620580003E-4,7.736644475E-4,-1.321131596E-3
2.873084938E1,-2.528913319E-4,1.170458156E-3,-1.519196318E-3
2.878084938E1,-2.747732215E-4,6.887721829E-4,-1.604207442E-3
2.883084938E1,-1.469277777E-5,1.170458156E-3,-1.122521469E-3
2.888084938E1,3.166822717E-5,1.170458156E-3,-1.616247464E-3
2.893084938E1,-4.620580003E-4,7.737242850E-4,-1.122521469E-3
2.898084938E1,-4.620580003E-4,1.170458156E-3,-1.627610298E-3
2.903084938E1,-4.620580003E-4,5.016374635E-4,-1.367462799E-3
2.908084938E1,-6.531993859E-5,5.019325763E-4,-1.274148584E-3
2.913084938E1,-6.526848301E-5,9.144238429E-4,-1.534961164E-3
2.918084938E1,-4.620580003E-4,1.029625884E-3,-1.122521469E-3
2.923084938E1,-6.616208702E-5,9.018370183E-4,-1.122521469E-3
2.928084938E1,-4.620580003E-4,1.042933785E-3,-1.536283409E-3
2.933084938E1,-1.819680911E-4,1.170458156E-3,-2.187784994E-3
2.938084938E1,1.690082718E-4,1.170458156E-3,-1.753587625E-3
2.943084938E1,-4.620580003E-4,7.736831903E-4,-1.809611917E-3
2.948084938E1,4.018144682E-5,6.378263934E-4,-1.685545547E-3
2.953084938E1,-4.620580003E-4,4.084458342E-4,-2.187784994E-3
2.958084938E1,-4.620580003E-4,6.378263934E-4,-1.215788070E-3
2.963084938E1,-1.478353515E-4,8.162740851E-4,-1.122521469E-3
2.968084938E1,-3.793446813E-4,6.674298784E-4,-1.122521469E-3
2.973084938E1,-1.345875207E-4,4.326651106E-4,-1.518154982E-3
2.978084938E1,7.180636749E-5,1.103062532E-3,-1.189917093E-3
2.983084938E1,-4.620580003E-4,4.436080344E-4,-1.452130964E-3
2.988084938E1,1.157098450E-5,1.170458156E-3,-1.578896306E-3
2.993084938E1,-4.620580003E-4,8.221458411E-4,-1.122521469E-3
2.998084938E1,-4.620580003E-4,5.492598284E-4,-1.122521469E-3
3.003084938E1,-4.620580003E-4,5.015219795E-4,-1.122521469E-3
3.008084938E1,-4.620580003E-4,3.065728815E-4,-1.122521469E-3
3.013084938E1,-4.620580003E-4,1.466679270E-3,-1.519440906E-3
3.018084938E1,-3.509696107E-4,2.411025343E-4,-2.162965480E-3
3.023084938E1,-1.767550129E-4,1.170458156E-3,-1.407824340E-3
3.028084938E1,5.805655383E-5,6.503437180E-4,-1.122521469E-3
3.033084938E1,-4.620580003E-4,7.749117212E-4,-1.122521469E-3
3.038084938E1,-4.620580003E-4,6.378263934E-4,-1.655153232E-3
3.043084938E1,-4.620580003E-4,1.170458156E-3,-1.780375023E-3
3.048084938E1,-4.620580003E-4,1.051946310E-4,-1.791495597E-3
3.053084938E1,-6.527383812E-5,9.215561440E-4,-1.371423481E-3
3.058084938E1,-4.620580003E-4,6.604011869E-4,-1.790656592E-3
3.063084938E1,-3.139581531E-5,1.170458156E-3,-1.791747753E-3
3.068084938E1,-4.620580003E-4,2.757698530E-4,-1.620724681E-3
3.073084938E1,-4.620580003E-4,7.280370919E-4,-1.564942533E-3
3.078084938E1,1.160479151E-4,5.923523568E-4,-1.122521469E-3
3.083084938E1,-2.466537990E-4,9.550541872E-4,-1.575711649E-3
3.088084938E1,-2.689759713E-4,7.740516448E-4,-2.187784994E-3
3.093084938E1,-2.585728653E-4,1.170458156E-3,-1.722716494E-3
3.098084938E1,-4.620580003E-4,1.051946310E-4,-1.122521469E-3
3.103084938E1,-6.548920646E-5,9.778811364E-4,-1.519090263E-3
3.108084938E1,-4.620580003E-4,1.170458156E-3,-1.338212751E-3
3.113084938E1,-4.620580003E-4,6.820333656E-4,-1.303468365E-3
3.118084938E1,-6.592227146E-5,7.743226597E-4,-2.187784994E-3
3.123084938E1,-6.538070738E-5,7.737810956E-4,-1.791107934E-3
3.128084938E1,-6.500957534E-5,7.421395276E-4,-1.790736686E-3
3.133084938E1,-4.620580003E-4,2.623639302E-4,-2.187784994E-3
3.138084938E1,-8.791200817E-4,5.222567124E-4,-1.122521469E-3
3.143084938E1,-4.620580003E-4,1.026907703E-3,-1.122521469E-3
3.148084938E1,-4.620580003E-4,1.170458156E-3,-1.519764075E-3
3.153084938E1,-6.318720989E-5,1.170458156E-3,-2.052453347E-3
3.158084938E1,-4.620580003E-4,4.999799421E-4,-1.122521469E-3
3.163084938E1,-5.183555186E-5,1.048048842E-3,-1.546288375E-3
3.168084938E1,-6.533833221E-5,8.851174498E-4,-1.902444288E-3
3.173084938E1,7.057376206E-5,1.059485017E-3,-1.544180093E-3
3.178084938E1,-9.125913493E-5,7.739643333E-4,-1.122521469E-3
3.183084938E1,-4.620580003E-4,6.749905879E-4,-1.159685664E-3
3.188084938E1,-1.528586727E-4,1.170458156E-3,-1.481926069E-3
3.193084938E1,1.097230706E-4,1.170458156E-3,-2.100256039E-3
3.198084938E1,-4.620580003E-4,1.170458156E-3,-1.791632967E-3
3.203084938E1,9.480165318E-6,6.378263934E-4,-1.258466626E-3
3.208084938E1,-4.620580003E-4,5.021753022E-4,-1.855290262E-3
3.213084938E1,-4.620580003E-4,6.443822058E-4,-1.590512460E-3
3.218084938E1,-4.620580003E-4,8.263682248E-4,-1.122521469E-3
3.223084938E1,-4.620580003E-4,1.118343673E-3,-2.051505726E-3
3.228084938E1,2.907775342E-4,1.170458156E-3,-1.122521469E-3
3.233084938E1,-4.212264903E-4,5.838336656E-4,-1.122521469E-3
3.238084938E1,-4.620580003E-4,8.686532965E-4,-1.885980135E-3
3.243084938E1,-4.620580003E-4,1.170458156E-3,-1.655153232E-3
3.248084938E1,-6.529968232E-5,1.170458156E-3,-1.122521469E-3
3.253084938E1,4.675339442E-4,1.170458156E-3,-1.755833160E-3
3.258084938E1,-6.532156840E-5,3.503604792E-3,-1.038094983E-3
3.263084938E1,6.394134834E-5,2.924289554E-3,-3.068839200E-3
3.268084938E1,-6.020488217E-5,-1.753959805E-4,-1.268887660E-3
3.273084938E1,6.509851664E-5,-6.837580353E-3,1.277452335E-3
3.278084938E1,-6.552739069E-5,4.585282877E-3,-1.980650472E-3
3.283084938E1,-4.620580003E-4,-1.113365637E-3,-4.470041604E-4
3.288084938E1,-4.620580003E-4,4.688514164E-4,-6.684939726E-4
3.293084938E1,-4.620580003E-4,1.499746810E-3,-2.477184404E-3
3.298084938E1,-2.522487193E-5,2.835774794E-4,-9.581333143E-4
3.303084938E1,-4.620580003E-4,4.436312011E-4,-1.299130032E-3
3.308084938E1,-4.620580003E-4,1.161821769E-3,-2.187784994E-3
3.313084938E1,-4.620580003E-4,-2.915395016E-4,-1.310289372E-3
3.318084938E1,-4.620580003E-4,1.420964836E-3,-1.728261355E-3
3.323084938E1,-6.588781253E-5,1.051946310E-4,-1.591727603E-3
3.328084938E1,-4.620580003E-4,5.775844911E-4,-1.122521469E-3
3.333084938E1,-4.620580003E-4,1.170458156E-3,-1.730864751E-3
3.338084938E1,-4.620580003E-4,7.740490837E-4,-1.307661878E-3
3.343084938E1,-6.531924009E-5,1.170458156E-3,-1.567998203E-3
3.348084938E1,-6.547593512E-5,1.170458156E-3,-1.519103418E-3
3.353084938E1,-2.772989683E-5,-5.692220293E-5,-1.157012186E-3
3.358084938E1,-4.620580003E-4,2.470227890E-3,-1.843325212E-3
3.363084938E1,-2.156975679E-4,5.712166894E-4,-1.149219926E-3
3.368084938E1,-3.121506888E-4,4.050092539E-4,-2.037877683E-3
3.373084938E1,2.063594293E-4,2.235722262E-3,-1.367002958E-3
3.378084938E1,-3.231435549E-4,2.506221063E-4,-7.320606383E-4
3.383084938E1,-4.620580003E-4,6.403225707E-4,-2.057296224E-3
3.388084938E1,7.057376206E-5,2.244448289E-3,-2.332698554E-3
3.393084938E1,-7.428880781E-5,1.000968833E-2,-8.779881522E-3
3.398084938E1,-1.568136737E-3,3.216505982E-3,-2.654798701E-2
3.403084938E1,-7.393864915E-3,9.688082337E-2,-1.348015219E-1
3.408084938E1,5.769118667E-3,-4.844895005E-2,1.847802103E-1
3.413084938E1,5.612434354E-3,-2.182602324E-2,1.294756681E-2
3.418084938E1,3.671376035E-3,-3.931843489E-2,2.972021932E-3
3.423084938E1,2.410635818E-3,-2.003880218E-2,-1.201296784E-2
3.428084938E1,5.471785553E-4,-4.038008861E-3,-6.885312032E-4
3.433084938E1,-4.620580003E-4,3.823245643E-4,-5.249250680E-4
3.438084938E1,-4.620580003E-4,1.220701379E-3,1.543683466E-3
3.443084938E1,-4.620580003E-4,1.294890768E-3,-1.872661640E-3
3.448084938E1,-4.620580003E-4,-3.111302503E-4,-1.496593701E-3
3.453084938E1,-4.620580003E-4,8.179568686E-4,-1.050951541E-3
3.458084938E1,-3.703082912E-4,-1.559935044E-4,-1.872369554E-3
3.463084938E1,2.406779677E-4,1.418819767E-3,-8.170767687E-4
3.468084938E1,-4.620580003E-4,4.837825894E-3,-6.594118662E-3
3.473084938E1,-8.687260561E-5,2.185060875E-4,2.163869794E-4
3.478084938E1,9.158020839E-5,9.504245827E-4,-2.052142285E-3
3.483084938E1,-1.801291946E-4,1.897141337E-4,-1.455868012E-3
3.488084938E1,4.677278921E-4,6.267251447E-4,-1.530776732E-3
3.493084938E1,-6.582168862E-5,5.246197106E-4,-1.122521469E-3
3.498084938E1,-6.563216448E-5,1.566883991E-3,-1.122521469E-3
3.503084938E1,-4.620580003E-4,-4.527716665E-4,9.184499504E-5
3.508084938E1,-4.620580003E-4,-1.308466308E-3,-3.061809402E-4
3.513084938E1,-4.153419286E-5,-4.384166095E-4,-1.045799698E-3
3.518084938E1,-3.016414121E-4,2.423256636E-3,-1.791305840E-3
3.523084938E1,-2.258708701E-4,-7.238819380E-4,-9.263485554E-4
3.528084938E1,-4.620580003E-4,1.241468475E-3,-2.016384155E-3
3.533084938E1,-4.620580003E-4,1.108117867E-4,-1.122521469E-3
3.538084938E1,-2.786130644E-4,6.853439845E-4,-1.122521469E-3
3.543084938E1,-2.486621961E-4,7.155122003E-4,-1.577467425E-3
3.548084938E1,-4.620580003E-4,3.000946017E-4,-1.317421440E-3
3.553084938E1,-6.529781967E-5,1.567218569E-3,-1.324206125E-3
3.558084938E1,1.405454241E-4,-2.796029206E-3,-5.725794472E-5
3.563084938E1,-7.508331910E-4,2.679544874E-2,-2.763894945E-2
3.568084938E1,-2.320809290E-4,1.921599358E-2,1.806836762E-2
3.573084938E1,3.705162555E-2,7.763092220E-2,-1.462271512E-1
3.578084938E1,7.818736881E-2,4.901397601E-2,4.620427638E-2
3.583084938E1,-5.357931852E-1,1.913573295E-1,-3.402885795E-1
3.588084938E1,-5.420296192E-1,1.074687600E0,2.591919526E-2
3.593084938E1,-1.848328263E-1,1.670089126E0,-1.246285439E-1
3.598084938E1,-4.439234436E-1,3.541146755E0,9.413769096E-2
3.603084938E1,-1.607852697E0,4.795094490E0,-4.136704504E-1
3.608084938E1,-2.005151272E0,3.221624851E0,-4.798364043E-1
3.613084938E1,-1.729577065E0,1.360640168E0,-8.987200856E-1
3.618084938E1,-1.323144078E0,1.033285379E0,-1.240533590E0
3.623084938E1,-4.211634099E-1,1.063127160E0,-9.075863957E-1
3.628084938E1,7.477807999E-1,6.990295053E-1,-1.005033612E0
3.633084938E1,1.253291845E0,9.974661469E-2,-6.086688042E-1
3.638084938E1,8.936496973E-1,1.724098027E-1,-4.644011259E-1
3.643084938E1,3.683006391E-3,-4.816694260E-1,-5.144283772E-1
3.648084938E1,-5.841850042E-1,-1.502376795E0,-7.725307345E-1
3.653084938E1,-6.901795864E-1,-1.481217027E0,-6.111468673E-1
3.658084938E1,-1.157306135E-1,-2.355353087E-1,-2.168418318E-1
3.663084938E1,1.257162541E-1,8.817337155E-1,3.817467690E-1
3.668084938E1,2.633430064E-1,7.499573827E-1,7.609974742E-1
3.673084938E1,-1.951857954E-1,1.497447044E-1,-1.048042104E-1
3.678084938E1,-6.766505241E-1,7.731495798E-2,-4.779467583E-1
3.683084938E1,-7.936223149E-1,-1.003417522E-1,-4.150469303E-1
3.688084938E1,-7.151983380E-1,-3.432981968E-1,-5.336079597E-1
3.693084938E1,-4.733845890E-1,-3.127427101E-1,-4.834900796E-1
3.698084938E1,-5.554736853E-1,-3.678571284E-1,-7.309937477E-1
3.703084938E1,-7.162426114E-1,-3.647249937E-1,-1.281656623E0
3.708084938E1,-7.901771069E-1,-1.169927567E-1,-1.363531113E0
3.713084938E1,-3.910485506E-1,-5.965283141E-2,-9.186003804E-1
3.718084938E1,3.249865770E-1,-1.474472582E-1,-2.883127332E-1
3.723084938E1,4.963684976E-1,-4.203601927E-2,6.098556519E-2
3.728084938E1,-1.985601932E-1,-3.457146585E-1,-3.183791041E-1
3.733084938E1,-8.595420122E-1,-4.876755178E-1,-6.872361302E-1
3.738084938E1,-8.236238956E-1,-2.549167871E-1,-2.355952710E-1
3.743084938E1,-7.709903121E-1,-1.414505541E-1,1.336722374E-1
3.748084938E1,-1.131453514E0,-5.000451803E-1,8.904358745E-2
3.753084938E1,-1.235427976E0,-6.440469623E-1,-2.429024428E-1
3.758084938E1,-7.770648003E-1,-6.272627115E-1,-2.094575763E-1
3.763084938E1,-5.370291471E-1,-5.859793425E-1,-9.942409396E-2
3.768084938E1,-6.857379675E-1,-3.869408071E-1,3.187922761E-2
3.773084938E1,-6.446323395E-1,-3.411942124E-1,2.330128551E-1
3.778084938E1,-6.251990795E-1,-2.800441980E-1,1.873956323E-1
3.783084938E1,-6.621302366E-1,-7.099691778E-2,-6.505148485E-3
3.788084938E1,-3.465020359E-1,3.344041109E-1,2.816512994E-2
3.793084938E1,1.987917423E-1,4.417651892E-1,1.551834643E-1
3.798084938E1,5.406501293E-1,1.269794255E-1,-1.457570195E-1
3.803084938E1,-2.920945585E-1,-3.863564730E-1,-8.666754365E-1
3.808084938E1,-7.588546276E-1,-6.711943448E-2,-4.454033375E-1
3.813084938E1,4.128449261E-1,-4.228407741E-1,7.854300141E-1
3.818084938E1,-1.463898420E-1,-6.302840710E-1,-3.162675202E-1
3.823084938E1,1.110825092E-1,-4.792680740E-1,-7.847416997E-1
3.828084938E1,7.329584360E-1,-3.466172814E-1,-2.643568814E-1
3.833084938E1,6.028525829E-1,1.508221626E-1,1.572240591E-1
3.838084938E1,4.315020144E-1,-2.217155695E-1,2.614572644E-1
3.843084938E1,-7.464394718E-2,-9.587565064E-2,-5.131669343E-2
3.848084938E1,3.686108887E-1,8.036848158E-2,4.426831603E-1
3.853084938E1,4.135891795E-2,1.038477570E-1,3.410885632E-1
3.858084938E1,-4.754323959E-1,1.259561330E-1,4.588245228E-2
3.863084938E1,-5.825920105E-1,1.277602017E-1,1.069356874E-2
3.868084938E1,-3.282159269E-1,5.978929400E-1,4.285237566E-2
3.873084938E1,-2.357677519E-1,6.402905583E-1,2.011124417E-2
3.878084938E1,-2.082724571E-1,2.003902346E-1,1.968193948E-1
3.883084938E1,-5.753590465E-1,2.059905678E-1,1.611176580E-1
3.888084938E1,-2.530425787E-1,7.629746795E-1,5.369935632E-1
3.893084938E1,8.012750000E-2,1.010282874E0,9.105435014E-1
3.898084938E1,-5.822468400E-1,8.058235049E-1,4.980731308E-1
3.903084938E1,-6.059212685E-1,5.528969765E-1,9.986487031E-2
3.908084938E1,-7.089571655E-2,4.323756397E-1,-4.411458597E-2
3.913084938E1,-2.442354113E-1,2.818239629E-1,-1.439169049E-1
3.918084938E1,-5.146571398E-1,-8.164574951E-2,-2.943424284E-1
3.923084938E1,-6.096480042E-2,1.623386741E-1,1.901226044E-1
3.928084938E1,8.988548815E-2,3.157898784E-1,3.519976139E-1
3.933084938E1,-9.224702418E-2,5.553656220E-1,1.064661220E-1
3.938084938E1,-6.551087648E-2,6.045939922E-1,1.180659682E-1
3.943084938E1,1.993699074E-1,3.720166087E-1,1.405141503E-1
3.948084938E1,2.360666394E-1,7.719467580E-2,1.290297806E-1
3.953084938E1,2.260759473E-2,-3.242782950E-1,3.421161696E-2
3.958084938E1,3.906506300E-2,-2.780125141E-1,3.217507526E-2
3.963084938E1,1.274773777E-1,-7.721322775E-2,9.183187038E-2
3.968084938E1,-3.119753674E-3,2.111276984E-2,-1.011521816E-1
3.973084938E1,1.311048865E-1,1.492094696E-1,4.458680004E-2
3.978084938E1,2.017310262E-1,1.034851670E-1,1.550881863E-1
3.983084938E1,-3.303117454E-1,1.227799729E-1,-4.974467754E-1
3.988084938E1,1.857773364E-1,1.211687624E-1,-2.123163044E-1
3.993084938E1,9.649349451E-1,2.327579558E-1,4.509868026E-1
3.998084938E1,7.214432955E-1,6.943067908E-1,1.628564671E-2
4.003084938E1,4.936960638E-1,6.783602834E-1,4.209000245E-2
4.008084938E1,4.272789955E-1,4.006416500E-1,2.710627625E-3
4.013084938E1,4.184741676E-1,3.587144613E-1,-1.209352911E-1
4.018084938E1,-4.330117404E-1,2.724982612E-2,-1.039338112E0
4.023084938E1,-1.522216082E0,-7.453237176E-1,-1.515547514E0
4.028084938E1,4.487033933E-2,-1.605089158E-1,5.642937422E-1
4.033084938E1,7.858674526E-1,1.600842178E-2,8.303868175E-1
4.038084938E1,2.959360480E-1,-3.158860207E-1,7.169212401E-2
4.043084938E1,2.982572019E-1,-9.737123847E-1,-9.515011311E-2
4.048084938E1,5.837030411E-1,-1.121111512E0,9.452359378E-2
4.053084938E1,2.769283652E-1,-5.604483485E-1,2.100992948E-2
4.058084938E1,1.600702107E-1,-1.882847250E-1,2.080260515E-1
4.063084938E1,3.477704227E-1,8.090589941E-2,4.510635734E-1
4.068084938E1,3.805727661E-1,4.628969431E-1,3.564952016E-1
4.073084938E1,6.277263165E-1,5.857246518E-1,5.003733039E-1
4.078084938E1,7.558051348E-1,2.865550220E-1,6.097719073E-1
4.083084938E1,5.660724640E-1,-1.801194623E-2,4.813260138E-1
4.088084938E1,3.165617287E-1,-7.481178641E-2,3.077320158E-1
4.093084938E1,3.030321896E-1,6.504510343E-2,1.763600409E-1
4.098084938E1,5.792248249E-1,-2.113442682E-2,4.287977219E-1
4.103084938E1,7.790469527E-1,2.390385568E-1,5.393971801E-1
4.108084938E1,1.157653332E0,4.771722853E-1,4.932406545E-1
4.113084938E1,1.654688478E0,3.682091832E-2,9.882267118E-1
4.118084938E1,1.707314014E0,-5.192970634E-1,1.299566388E0
4.123084938E1,1.766092062E0,-4.536246657E-1,1.027183771E0
4.128084938E1,1.704399824E0,-1.952563226E-1,1.193536043E0
4.133084938E1,1.375412226E0,3.785932064E-2,1.141834497E0
4.138084938E1,1.177630544E0,2.147546858E-1,8.782761693E-1
4.143084938E1,4.873490632E-1,2.761939727E-2,4.444638491E-1
4.148084938E1,-1.568652093E-1,-2.691627741E-1,7.366411388E-2
4.153084938E1,7.142904401E-2,-4.195308387E-1,4.805776775E-1
4.158084938E1,2.196477205E-1,-2.102111429E-1,3.653338253E-1
4.163084938E1,6.839426160E-1,1.259679049E-1,3.601424992E-1
4.168084938E1,6.291350126E-1,-3.237956762E-1,6.455225348E-1
4.173084938E1,-2.118086666E-1,-1.532076895E-1,1.919751763E-1
4.178084938E1,-2.716198862E-1,2.954908609E-1,2.751813829E-1
4.183084938E1,-1.848836690E-1,1.077342033E-1,7.203820348E-1
4.188084938E1,-4.186349809E-1,-7.957598567E-2,4.016274512E-1
4.193084938E1,4.154853523E-2,-2.270440161E-1,9.154565632E-3
4.198084938E1,3.618228734E-1,-3.726516366E-1,-2.013737261E-1
4.203084938E1,8.260550350E-2,-1.919060051E-1,-2.245341390E-1
4.208084938E1,-3.622762263E-1,-8.244052529E-2,-7.147750258E-2
4.213084938E1,-3.077892065E-1,-1.066167578E-1,-3.676275164E-2
4.218084938E1,2.399678975E-1,-1.752102971E-1,2.410000376E-2
4.223084938E1,3.615542501E-2,-3.104456067E-1,-3.342953920E-1
4.228084938E1,8.342705667E-2,-3.280065060E-1,-3.529248536E-1
4.233084938E1,-1.554892063E-1,-4.390875101E-1,-5.113169551E-1
4.238084938E1,-1.401517093E-1,-4.807482958E-1,-4.405414462E-1
4.243084938E1,7.106880844E-2,-5.291826129E-1,-3.017362654E-1
4.248084938E1,1.243007407E-1,-2.889563441E-1,-2.494079173E-1
4.253084938E1,1.321801692E-1,-1.994643658E-1,-1.199862212E-1
4.258084938E1,2.026376724E-1,-2.299042493E-1,3.467592597E-2
4.263084938E1,2.340042889E-1,-3.192975521E-1,-1.362065077E-1
4.268084938E1,2.053381503E-1,-5.236378312E-1,-1.651780903E-1
4.273084938E1,3.300846219E-1,-9.087642431E-1,-2.156403959E-1
4.278084938E1,5.196445584E-1,-1.018730283E0,-2.430132329E-1
4.283084938E1,5.612200499E-1,-6.305170059E-1,1.482210904E-1
4.288084938E1,5.145122409E-1,-6.223153472E-1,1.140282750E-1
4.293084938E1,3.630632460E-1,-7.713614106E-1,-9.795016050E-2
4.298084938E1,3.754013181E-1,-8.312765956E-1,-1.319072396E-2
4.303084938E1,4.477228224E-1,-1.127948165E0,1.829649061E-1
4.308084938E1,3.877738416E-1,-7.163869739E-1,4.763206542E-1
4.313084938E1,1.763515323E-1,-6.199959517E-1,2.799668312E-1
4.318084938E1,3.095480986E-2,-3.888845444E-1,1.840985715E-1
4.323084938E1,1.795440018E-1,-2.612203956E-1,3.236589730E-1
4.328084938E1,6.744328886E-2,-8.124775290E-1,2.017193437E-1
4.333084938E1,2.812666632E-2,-6.023715734E-1,3.338561058E-1
4.338084938E1,3.023478389E-1,-1.233887553E0,-9.900952131E-2
4.343084938E1,4.409203827E-1,-4.797330797E-1,1.878276020E-1
4.348084858E1,9.406463802E-2,3.946287036E-1,-4.845422208E-1
4.353084858E1,-5.227321386E-2,4.415663779E-1,-7.395188212E-1
4.358084858E1,1.516789496E-1,-9.429003298E-2,-2.530418932E-1
4.363084858E1,2.815251946E-1,-2.083173394E-1,1.271571368E-1
4.368084858E1,1.802386791E-1,-5.287798643E-1,2.037073076E-1
4.373084858E1,4.044482112E-2,-4.670191705E-1,2.921780348E-1
4.378084858E1,-1.940494478E-1,-2.738256454E-1,-7.451582700E-3
4.383084858E1,-2.699826956E-1,-4.103044271E-1,-2.060436159E-1
4.388084858E1,2.167682797E-1,-3.330305815E-1,2.140929997E-1
4.393084858E1,2.868714631E-1,-2.298666537E-1,2.972607017E-1
4.398084858E1,1.844280958E-1,-6.755298376E-1,5.917555466E-2
4.403084858E1,2.371028364E-1,-2.561884403E0,-8.390278220E-1
4.408084858E1,1.584790498E-1,-1.472234130E0,-9.364711642E-1
4.413084858E1,1.541878730E-1,6.121438928E-3,-4.500609934E-1
4.418084858E1,3.321097791E-1,1.181396544E-1,-5.602507666E-2
4.423084858E1,3.803572059E-2,-2.066000402E-1,2.282212079E-1
4.428084858E1,-7.084842771E-2,-7.982690930E-1,2.995799780E-1
4.433084858E1,-3.984710202E-3,-3.964005113E-1,7.621944547E-1
4.438084858E1,1.707816571E-1,-6.415764689E-1,6.567005515E-1
4.443084858E1,7.023659945E-1,-2.670007944E-1,2.266911566E-1
4.448084858E1,1.267075777E0,3.080458641E-1,-8.089340329E-1
4.453084858E1,1.168196321E0,-1.005138308E-1,-9.107879996E-1
4.458084858E1,4.921862185E-1,-3.951900452E-2,7.280105948E-1
4.463084858E1,9.385942221E-1,7.864800841E-2,6.617060304E-1
4.468084858E1,4.251854718E-1,-2.054746896E-1,-7.175521255E-1
4.473084858E1,5.036416054E-1,-1.043603867E-1,-8.678434789E-2
4.478084858E1,3.070930839E-1,3.765669093E-2,1.277611703E-1
4.483084858E1,9.044300318E-1,9.729246795E-2,5.881835520E-2
4.488084858E1,1.275381327E0,-6.335825659E-3,-5.629413947E-2
4.493084858E1,1.027897596E0,-8.151078820E-1,7.962508202E-1
4.498084858E1,1.633335352E0,-3.851308227E-1,1.625545025E0
4.503084858E1,-1.478181481E-1,1.041235805E0,4.897916615E-1
4.508084858E1,-1.881503820E0,-2.828258276E-1,-1.462912202E0
4.513084858E1,-1.279747963E0,-1.833359450E-1,-9.933523536E-1
4.518084858E1,3.787907958E-1,7.297320962E-1,3.753195107E-1
4.523084858E1,5.907753110E-1,2.250177972E-2,7.827458978E-1
4.528084858E1,-8.284701705E-1,-5.369884968E-1,-4.284639359E-1
4.533084858E1,-1.123508692E0,-3.597346544E-1,-1.162285805E0
4.538084858E1,-4.047997892E-1,1.039354354E-1,-7.683500648E-1
4.543084858E1,-8.764201403E-1,9.882974625E-2,-3.973245919E-1
4.548084858E1,-1.044918299E0,8.507314138E-3,-4.828826785E-1
4.553084858E1,-7.739204764E-1,-1.394812018E-1,-3.593876064E-1
4.558084858E1,1.559806913E-1,-3.264497966E-2,2.456970364E-1
4.563084858E1,7.733056694E-2,-1.639497578E-1,2.831287980E-1
4.568084858E1,7.713040709E-2,2.503025532E-1,9.931474179E-2
4.573084858E1,-3.067190759E-2,2.161680460E-1,6.113109738E-2
4.578084858E1,3.733589500E-2,3.350734413E-1,2.201123685E-1
4.583084858E1,4.685511291E-1,2.477782071E-1,3.959479332E-1
4.588084858E1,5.390154719E-1,5.031149834E-2,2.405360043E-1
4.593084858E1,1.657054871E-1,2.591284215E-1,2.781014740E-1
4.598084858E1,-5.922935903E-2,3.014114499E-1,3.126103580E-1
4.603084858E1,9.287320822E-2,1.859551817E-1,5.139946565E-2
4.608084858E1,1.888483763E-1,-3.023824990E-1,1.926761568E-1
4.613084858E1,6.778516620E-2,-6.158624291E-1,4.248153567E-1
4.618084858E1,9.401135892E-2,1.196979657E-1,1.288256198E-1
4.623084858E1,-2.108581960E-1,1.277817339E-1,2.917257138E-2
4.628084858E1,1.967211813E-1,-1.316184103E-1,1.278199852E-1
4.633084858E1,1.656321734E-1,-6.798791885E-2,2.379154563E-1
4.638084858E1,6.646674871E-1,-3.376272507E-3,8.118185997E-1
4.643084858E1,2.610427439E-1,2.676156722E-2,5.139341950E-1
4.648084858E1,-2.935272157E-1,1.053266879E-2,-5.361361429E-2
4.653084858E1,2.631998956E-1,1.043792516E-1,1.830188036E-1
4.658084858E1,-6.614241004E-2,9.829216450E-2,-3.029911816E-1
4.663084858E1,-1.215781048E-1,-3.333472610E-1,-1.658858955E-1
4.668084858E1,1.735369265E-1,4.516400769E-2,2.226163596E-1
4.673084858E1,-1.506009400E-1,3.514396772E-2,-1.068794075E-2
4.678084858E1,-1.662411541E-1,6.216915697E-2,9.234686941E-2
4.683084858E1,-1.298086643E-1,2.765175700E-1,2.162903547E-2
4.688084858E1,9.805978090E-2,1.000785381E-1,1.273686588E-1
4.693084858E1,3.378144205E-1,6.481832266E-2,3.401660025E-1
4.698084858E1,1.962193847E-1,1.824230999E-1,1.658646762E-1
4.703084858E1,-6.852813065E-2,-3.296184912E-2,-2.455885895E-2
4.708084858E1,-1.336623728E-1,-1.294423044E-1,-1.875719428E-1
4.713084858E1,-1.211513206E-1,1.149204448E-1,-4.116554931E-2
4.718084858E1,-2.435440868E-1,-2.188008428E-1,-2.995633781E-1
4.723084858E1,1.377171725E-1,3.103275783E-2,-1.032948270E-1
4.728084858E1,8.213082701E-2,2.913933396E-1,9.755378217E-2
4.733084858E1,-1.358270943E-1,1.892148256E-1,-2.058878690E-1
4.738084858E1,-1.480353251E-2,9.492175281E-2,-1.599464864E-1
4.743084858E1,-3.084657714E-3,4.446517676E-2,-1.036601663E-1
4.748084858E1,-1.602545194E-2,2.183176577E-1,-2.854268253E-2
4.753084858E1,3.350375593E-2,-2.463317066E-1,8.910633624E-2
4.758084858E1,6.626744568E-2,-6.648911536E-2,-5.245468393E-2
4.763084858E1,-8.465042338E-3,-5.125724897E-2,-3.879823023E-3
4.768084858E1,-7.393791527E-2,1.022608131E-1,-3.200442344E-2
4.773084858E1,3.063409217E-2,2.967907302E-2,4.419805482E-2
4.778084858E1,4.442851245E-2,1.761527918E-2,1.480059028E-1
4.783084858E1,1.404538751E-2,-5.915139616E-2,5.100776255E-2
4.788084858E1,-2.259709686E-2,-4.102454707E-2,-1.302225422E-2
4.793084858E1,3.555170447E-2,-1.381830126E-1,5.103183910E-2
4.798084858E1,7.781537622E-2,-6.096102297E-2,6.055549905E-2
4.803084858E1,2.666898072E-2,-2.461735345E-2,2.941398323E-2
4.808084858E1,2.494612522E-2,-8.228261769E-2,8.406541497E-2
4.813084858E1,-4.204963893E-2,-3.500541672E-2,-4.878938571E-2
4.818084858E1,-3.707277030E-2,6.181326509E-2,-9.601412341E-3
4.823084858E1,-1.309470534E-1,4.094939679E-2,-1.439695656E-1
4.828084858E1,-1.069428027E-2,1.034202427E-1,-1.305731237E-1
4.833084858E1,4.361525178E-2,5.538001657E-2,4.051972926E-2
4.838084858E1,-2.901010402E-2,7.382169366E-2,4.273495823E-2
4.843084858E1,4.116981477E-2,1.015472710E-1,1.391286869E-2
4.848084858E1,9.329330176E-2,8.251942694E-2,8.012366295E-2
4.853084858E1,1.038861275E-1,5.447453260E-2,1.170730442E-1
4.858084858E1,6.056642532E-2,1.239785105E-1,9.847769886E-2
4.863084858E1,2.534388937E-2,1.147400811E-1,7.994179428E-2
4.868084858E1,2.298561856E-2,2.993890271E-2,1.067960169E-2
4.873084858E1,4.116721451E-2,-2.261880040E-2,2.853905782E-2
4.878084858E1,3.887256980E-2,1.943063922E-2,-3.035119362E-2
4.883084858E1,-1.117194630E-2,-8.156873286E-3,-1.077870606E-3
4.888084858E1,-3.299178183E-2,-1.980917063E-3,-2.201185934E-2
4.893084858E1,-2.607320435E-3,1.543360855E-2,5.842209794E-5
4.898084858E1,3.051763214E-2,3.129514307E-2,6.271862984E-2
4.903084858E1,5.765210092E-2,8.977846056E-2,6.076193228E-2
4.908084858E1,8.434316516E-2,1.122978926E-1,7.252784073E-2
4.913084858E1,1.218602061E-3,7.266067900E-3,-2.359119803E-2
4.918084858E1,-2.944536693E-2,-7.593369484E-2,-4.336809739E-2
4.923084858E1,-9.969367832E-2,-8.033862710E-2,-1.489943564E-1
4.928084858E1,-3.085234202E-2,-3.601057827E-2,-9.141226113E-2
4.933084858E1,7.012003101E-3,9.227056988E-3,1.024472434E-2
4.938084858E1,8.587961085E-3,8.671353571E-3,6.022411212E-2
4.943084858E1,8.672849834E-2,-4.357803846E-4,1.227074564E-1
4.948084858E1,8.684897423E-2,1.787540503E-2,1.294810176E-1
4.953084858E1,3.397400677E-2,-1.030415576E-2,1.473798454E-1
4.958084858E1,2.691349387E-2,3.363167122E-2,1.010794565E-1
4.963084858E1,9.255320579E-2,-8.403054671E-4,-1.254458539E-2
4.968084858E1,6.798674166E-2,3.061241470E-3,-9.131325781E-2
4.973084858E1,1.456514746E-2,-1.101953816E-2,1.399438130E-3
4.978084858E1,1.120346971E-2,1.679104753E-2,3.250632063E-2
4.983084858E1,7.514718920E-2,3.934885561E-2,9.095814824E-2
4.988084858E1,6.672162563E-2,1.090810150E-1,1.040990055E-1
4.993084858E1,1.017570347E-1,-1.543977577E-2,1.631982476E-1
4.998084858E1,-1.960275136E-2,-3.115743585E-2,-2.195797116E-2
5.003084858E1,2.642106824E-2,8.913552761E-2,6.344232708E-2
5.008084858E1,7.532586809E-3,4.508908093E-2,-5.942417309E-2
5.013084858E1,2.588404343E-3,-3.463943675E-2,-1.272986233E-1
5.018084858E1,-4.267388955E-3,-1.107019857E-1,-1.121496558E-1
5.023084858E1,-1.280560996E-2,-5.276753753E-2,-6.638592482E-2
5.028084858E1,-2.364134602E-2,1.461567450E-2,6.888370030E-3
5.033084858E1,2.496050112E-2,4.308915883E-2,7.925245911E-2
5.038084858E1,3.323063999E-2,4.310159385E-2,1.284100115E-1
5.043084858E1,8.799422532E-2,1.606232524E-1,1.482734382E-1
5.048084858E1,1.330208126E-2,-4.810829461E-2,-3.003200144E-2
5.053084858E1,-3.545600921E-3,2.236407064E-2,-1.209864020E-1
5.058084858E1,3.572379053E-2,-4.429073259E-2,1.634057052E-2
5.063084858E1,1.012081653E-2,3.449179977E-2,1.755051129E-2
5.068084858E1,5.519344471E-3,5.299634486E-2,4.388419911E-3
5.073084858E1,7.317834534E-4,-5.537026562E-3,3.945853561E-3
5.078084858E1,-5.281765014E-2,-9.730273485E-2,-7.748597115E-2
5.083084858E1,-1.118917391E-2,-2.299737744E-2,-3.896718845E-2
5.088084858E1,4.736220837E-2,1.084564030E-1,5.598536879E-2
5.093084858E1,5.715005100E-2,8.914750069E-2,9.807634354E-2
5.098084858E1,-1.611950062E-2,-8.807738125E-2,-1.472055167E-2
5.103084858E1,-1.893042214E-2,-7.969120890E-2,-4.351392016E-2
5.108084858E1,-6.298882887E-3,-4.205062985E-2,-7.681168616E-2
5.113084858E1,-9.246479720E-3,-3.441863135E-2,-3.414977342E-2
5.118084858E1,1.664737239E-2,3.643950820E-2,2.411973290E-2
5.123084858E1,4.136867076E-2,5.553543568E-2,5.865997449E-2
5.128084858E1,1.132623758E-2,8.580888808E-2,2.413627133E-2
5.133084858E1,1.280587818E-2,6.284378469E-3,3.698919341E-2
5.138084858E1,-4.224894568E-3,-9.521451592E-2,2.413486829E-3
5.143084858E1,-8.071493357E-4,-1.151294261E-1,-1.151552610E-2
5.148084858E1,2.009519003E-2,1.498993766E-2,-4.993945360E-2
5.153084858E1,4.757775366E-2,7.001337409E-2,1.356967352E-2
5.158084858E1,4.015854746E-2,-3.163717315E-2,6.107189693E-3
5.163084858E1,6.919845194E-2,-7.018038630E-2,1.538915187E-2
5.168084858E1,2.935378626E-2,-1.005382091E-1,-1.081988290E-1
5.173084858E1,-6.011524051E-2,-1.147918031E-1,-1.250318885E-1
5.178084858E1,-8.413409442E-2,1.347097661E-2,-1.452035308E-1
5.183084858E1,1.459337119E-2,9.436871856E-3,-1.366069615E-1
5.188084858E1,-1.734159328E-2,6.219898164E-2,-6.355441362E-2
5.193084858E1,7.097142190E-2,-1.048384383E-1,5.632812530E-2
5.198084858E1,-1.206926927E-1,1.821529567E-1,-1.371873766E-1
5.203084858E1,3.731696308E-2,-7.388636470E-2,1.031782851E-2
5.208084858E1,8.682953194E-3,-4.909105971E-2,-7.044948637E-2
5.213084858E1,-3.162620217E-2,9.508247674E-2,-4.894028232E-2
5.218084858E1,-2.241276018E-2,5.271538720E-2,-2.451014146E-2
5.223084858E1,2.678984776E-2,2.643939666E-2,3.002823517E-2
5.228084858E1,-1.309495047E-2,2.403125726E-2,-1.507499628E-2
5.233084858E1,1.386620663E-2,2.213625051E-2,1.276416425E-2
5.238084858E1,-2.532632276E-2,-3.095501103E-2,-3.511058167E-2
5.243084858E1,-7.694954425E-2,-6.573519856E-2,-1.033673137E-1
5.248084858E1,-1.067334190E-1,9.251932800E-2,-1.438158453E-1
5.253084858E1,-4.486843944E-2,2.188539952E-1,-5.011167750E-2
5.258084858E1,-1.269514859E-1,4.333007038E-1,-1.004600078E-1
5.263084858E1,-1.329638213E-1,4.670491219E-1,-1.100872606E-1
5.268084858E1,-1.894129515E-1,3.281479478E-1,-1.593764871E-1
5.273084858E1,-4.273635149E-2,6.726938486E-2,-6.850217283E-2
5.278084858E1,2.021075785E-2,6.059352309E-2,6.010784768E-3
5.283084858E1,-4.515139014E-2,2.185275704E-1,3.747401759E-2
5.288084858E1,-6.349995732E-2,-1.584107727E-1,9.552833438E-2
5.293084858E1,5.241760984E-3,-1.084694937E-1,-1.023827791E-1
5.298084858E1,1.861631274E-1,-6.100061536E-1,1.197982728E-1
5.303084858E1,1.394331008E-1,-3.861684799E-1,3.195898980E-2
5.308084858E1,2.127180398E-1,-5.856005549E-1,1.426748931E-1
5.313084858E1,-1.004223898E-1,4.253446124E-3,-2.275608182E-1
5.318084858E1,-3.773012757E-2,-6.924828887E-2,-1.779947877E-1
5.323084858E1,-5.383352190E-2,-1.022999138E-1,-1.194817722E-1
5.328084858E1,-9.115622193E-2,1.619344652E-1,-1.342148483E-1
5.333084858E1,-8.588998765E-2,6.156265736E-2,-8.905951679E-2
5.338084858E1,9.032237343E-3,2.695863545E-1,5.224427208E-2
5.343084858E1,2.421750128E-2,1.212016568E-1,4.587023333E-2
5.348084858E1,-9.686262161E-2,4.059475958E-1,-4.587209225E-2
5.353084858E1,2.190730907E-2,7.848055661E-2,5.884223059E-2
5.358084858E1,6.441336870E-2,-2.967680991E-2,1.162812114E-1
5.363084858E1,5.037193000E-2,1.050492078E-1,1.515141428E-1
5.368084858E1,9.831473976E-2,-7.404259592E-2,2.709632516E-1
5.373084858E1,3.343534470E-2,1.491760183E-2,8.249746263E-2
5.378084858E1,3.791750968E-2,-7.403342426E-2,-3.388647363E-2
5.383084858E1,1.526372284E-1,-3.049447536E-1,1.499967426E-1
5.388084858E1,-1.265968569E-2,-5.125986040E-2,-5.045054480E-2
5.393084858E1,-1.773623563E-2,2.435048111E-2,-2.727957442E-2
5.398084858E1,5.895664543E-2,-1.720804423E-1,-4.865130410E-2
5.403084858E1,-1.654068083E-1,1.793597043E-1,-2.076757252E-1
5.408084858E1,-8.155474067E-2,-1.383829210E-2,-7.476616651E-2
5.413084858E1,1.357860863E-2,-2.038732767E-1,-5.733013898E-2
5.418084858E1,-3.006777726E-2,-9.169112146E-2,-3.508357704E-2
5.423084858E1,3.705546260E-2,-2.710827589E-1,6.859154254E-2
5.428084858E1,1.166001521E-2,-2.820501924E-1,8.806414902E-3
5.433084858E1,1.913735457E-2,-2.136947662E-1,1.514179632E-2
5.438084858E1,8.858159184E-3,-2.046649717E-2,-6.741726771E-3
5.443084858E1,-1.954005957E-1,3.554641604E-1,-2.023752928E-1
5.448084858E1,-5.862509459E-2,-9.550509043E-3,-7.179678977E-2
5.453084858E1,-3.692804836E-3,1.291212393E-4,-7.477907464E-3
5.458084858E1,-1.169178635E-3,3.888461739E-2,-1.055249386E-2
5.463084858E1,5.263682455E-3,-2.745961957E-2,-1.725218259E-3
5.468084858E1,1.218071394E-2,-9.067089856E-2,1.146232942E-3
5.473084858E1,-2.340994775E-3,-1.030362993E-1,-1.352963410E-2
5.478084858E1,9.289339185E-3,-4.162722826E-2,-3.814138100E-2
5.483084858E1,-1.038832590E-1,1.141412705E-1,-1.068983674E-1
5.488084858E1,-5.383249372E-2,2.419934236E-2,-8.090163022E-2
5.493084858E1,-2.317701094E-2,-2.935285307E-2,-1.039788425E-1
5.498084858E1,-3.592526168E-2,-1.227781270E-2,-3.545050696E-2
5.503084858E1,4.265024513E-2,-2.570903003E-1,5.093314685E-3
5.508084858E1,-1.492613554E-1,2.031298280E-1,-1.733704954E-1
5.513084858E1,-3.141440451E-2,7.037926465E-2,-3.298066184E-2
5.518084858E1,-9.858167917E-2,2.075672150E-1,-1.093188897E-1
5.523084858E1,-7.333428413E-2,1.617277116E-1,-1.226774305E-1
5.528084858E1,1.143433079E-1,-9.613496065E-2,9.880897403E-2
5.533084858E1,1.889205351E-2,-1.004596334E-2,4.437799379E-2
5.538084858E1,-2.788253501E-2,-7.439286262E-2,-4.494021460E-2
5.543084858E1,-5.701356567E-4,-7.355458103E-3,1.182857901E-2
5.548084858E1,2.939867415E-2,-2.138262093E-1,1.764767990E-2
5.553084858E1,-2.695121057E-2,-1.206959188E-1,-1.699324325E-2
5.558084858E1,-5.878242664E-3,-6.590889394E-2,3.172548721E-3
5.563084858E1,9.564769268E-2,-2.141941339E-1,8.899730444E-2
5.568084858E1,3.176171333E-3,-1.482425351E-2,1.385780284E-3
5.573084858E1,-6.154716760E-2,2.070983350E-1,-5.282903835E-2
5.578084858E1,-9.108587168E-3,1.142752916E-1,-1.951256767E-2
5.583084858E1,-2.519650571E-2,3.719604388E-2,-4.354430363E-3
5.588084858E1,-2.712578326E-2,6.343539804E-2,-6.626076996E-3
5.593084858E1,2.238190500E-3,-2.620890504E-3,-7.788242772E-3
5.598084858E1,5.355002824E-3,7.028645836E-3,7.753658108E-3
5.603084858E1,-2.042529173E-2,4.021409899E-2,9.843435138E-3
5.608084858E1,-6.567367166E-2,2.357976586E-1,-7.797975838E-2
5.613084858E1,-1.868429966E-2,1.918761581E-1,-5.663656816E-2
5.618084858E1,1.025092676E-1,-8.644299954E-2,4.052840918E-2
5.623084858E1,4.342130572E-2,-1.469001621E-1,3.754091635E-2
5.628084858E1,7.660910953E-3,-5.215299875E-2,2.416046709E-2
5.633084858E1,1.698401757E-2,-1.113402471E-2,-1.440169662E-2
5.638084858E1,-1.765518263E-2,2.515201457E-2,-1.146864239E-2
5.643084858E1,5.372411106E-3,-9.365914017E-2,2.173441648E-2
5.648084858E1,2.302977629E-2,-7.605528831E-2,3.222079575E-2
5.653084858E1,-7.969626226E-3,-5.081712268E-3,-3.991874866E-3
5.658084858E1,5.906257313E-3,-4.956307821E-3,2.111737989E-2
5.663084858E1,1.030916348E-2,-6.388457865E-2,3.726210818E-2
5.668084858E1,-1.087517850E-2,1.767806127E-3,-5.305806175E-3
5.673084858E1,-2.204057761E-2,2.150912210E-2,-1.645283587E-2
5.678084858E1,-1.715465635E-2,-1.667304151E-2,-1.781336591E-2
5.683084858E1,-8.843809366E-3,-3.840715066E-2,-6.321458146E-3
5.688084858E1,4.414058290E-3,-6.366626918E-2,3.886698512E-3
5.693084858E1,-1.232006494E-2,2.107170597E-2,-1.523598004E-2
5.698084858E1,1.907995157E-2,-5.059140921E-2,7.609716617E-3
5.703084858E1,-2.843936533E-2,4.946412891E-2,-4.621757194E-2
5.708084858E1,-5.432248861E-2,1.135360301E-1,-5.270007625E-2
5.713084858E1,-2.213143371E-2,4.544042796E-2,-2.862112224E-2
5.718084858E1,-3.234133124E-2,1.131297648E-1,-3.588977084E-2
5.723084858E1,3.959465772E-3,2.049525455E-2,8.098620921E-3
5.728084858E1,1.078630611E-2,-2.165938262E-3,1.445447654E-2
5.733084858E1,-2.667265944E-3,4.508460313E-2,-9.840074927E-3
5.738084858E1,6.630183198E-4,3.887614980E-2,-5.478245206E-3
5.743084858E1,-1.661434770E-3,1.592490450E-2,-5.272001959E-3
5.748084858E1,-5.016081966E-3,3.738269210E-2,-1.042224560E-2
5.753084858E1,6.254246458E-3,5.537593737E-3,1.028944179E-2
5.758084858E1,-1.863787416E-3,-4.031581432E-2,8.682980202E-3
5.763084858E1,6.344988942E-3,-2.739173733E-2,8.879915811E-3
5.768084858E1,-6.601974368E-3,4.380276799E-2,-1.532753371E-2
5.773084858E1,7.376874797E-3,-2.581072412E-2,1.213796623E-2
5.778084858E1,-2.347271703E-2,1.035434529E-1,-1.356458757E-3
5.783084858E1,7.730671670E-3,1.055520866E-2,3.575431183E-2
5.788084858E1,1.237065438E-2,-3.616519272E-2,2.441881411E-2
5.793084858E1,1.609319262E-2,-4.925727099E-2,1.352519542E-2
5.798084858E1,3.269750252E-2,-2.000937164E-1,-4.076283425E-3
5.803084858E1,8.138339967E-3,-1.415125728E-1,2.659886517E-2
5.808084858E1,-2.589774132E-2,4.933166876E-2,-2.171372762E-3
5.813084858E1,-7.274249569E-3,2.703705989E-2,-2.149738744E-2
5.818084858E1,4.090691451E-3,-3.020907566E-2,4.072159529E-3
5.823084858E1,2.584572695E-2,-1.166119426E-1,2.724963799E-2
5.828084858E1,8.302618749E-3,-5.756860226E-2,5.015064031E-3
5.833084858E1,4.090431612E-3,-1.197109232E-4,6.682559848E-3
5.838084858E1,1.090158476E-3,-3.392455354E-2,8.891443722E-3
5.843084858E1,9.626111016E-3,-3.025165573E-2,1.959760487E-2
5.848084858E1,-4.098696634E-3,1.012097951E-2,-1.001661364E-2
5.853084858E1,-6.753769703E-3,1.076737698E-2,-1.344890427E-2
5.858084858E1,2.065004781E-2,-8.306005038E-3,1.697082445E-2
5.863084858E1,2.959979698E-3,-3.575859591E-2,3.058956005E-3
5.868084858E1,-1.135354768E-2,1.302373130E-2,-1.718357671E-4
5.873084858E1,6.823091302E-3,1.352351252E-2,8.796571754E-3
5.878084858E1,6.304549985E-3,-1.898187771E-2,3.026247257E-3
5.883084858E1,-7.494157180E-4,-9.956478141E-3,9.126577061E-4
5.888084858E1,1.108335215E-3,1.051119063E-2,-6.385080516E-3
5.893084858E1,1.791862212E-2,-3.473058343E-2,1.694083586E-2
5.898084858E1,-1.346216537E-3,-3.710354492E-2,7.639799267E-3
5.903084858E1,-4.660537466E-3,7.109194063E-3,-1.082680305E-3
5.908084858E1,3.352151811E-2,1.279962156E-2,1.984750293E-2
5.913084858E1,-1.612755843E-2,6.495501101E-2,-1.152691059E-2
5.918084858E1,-1.345965266E-2,2.980211191E-2,-2.280635573E-2
5.923084858E1,3.202016233E-3,5.138017004E-4,7.559678517E-3
5.928084858E1,-1.102207042E-2,-2.322321944E-2,-6.458743475E-3
5.933084858E1,-5.730182864E-3,-1.007529534E-2,-8.815080859E-3
5.938084858E1,2.800425515E-2,-7.566459477E-2,2.857795358E-2
5.943084858E1,-8.448115550E-3,-1.927267574E-2,-2.495916793E-3
5.948084858E1,-4.415553994E-3,-2.749502659E-2,-5.139146931E-3
5.953084858E1,-1.261138543E-2,-1.469028462E-2,-2.372956462E-2
5.958084858E1,7.069774903E-3,-3.692721575E-2,1.944695599E-2
5.963084858E1,-3.565381467E-2,3.413940594E-2,-1.989940181E-2
5.968084858E1,-3.460568935E-2,6.762877107E-2,-2.255320549E-2
5.973084858E1,-4.237663746E-2,5.083995638E-4,-3.406214714E-2
5.978084858E1,-9.939387441E-3,-5.273922533E-2,-1.557067223E-2
5.983084858E1,-6.554041058E-3,-7.090430707E-2,-3.533354029E-3
5.988084858E1,-6.491596997E-2,-4.862830043E-3,-4.931059852E-2
5.993084858E1,-8.735968918E-2,-5.199707579E-3,-9.755940735E-2
5.998084858E1,1.568948664E-2,-3.402808681E-2,4.090322927E-2
6.003084858E1,-2.955140732E-2,-3.414016217E-2,-3.210784122E-2
6.008084858E1,2.287943847E-2,-5.255796015E-2,1.421296224E-2
6.013084858E1,-2.535771392E-2,2.739101090E-2,-1.857563481E-2
6.018084858E1,-9.889248759E-3,-5.313092843E-2,-2.117736265E-2
6.023084858E1,2.123625390E-2,-1.236466840E-1,2.741136961E-2
6.028084858E1,5.835886300E-2,-2.244657129E-1,5.032489076E-2
6.033084858E1,-2.404374536E-3,-1.714368016E-1,-1.583577693E-2
6.038084858E1,2.642485313E-3,-2.004554272E-1,-1.992145181E-2
6.043084858E1,-7.369355299E-3,3.759163618E-2,7.080527022E-3
6.048084858E1,2.633243985E-2,-1.202553362E-1,4.907179996E-2
6.053084858E1,1.113190409E-2,-1.432839930E-1,2.059930749E-2
6.058084858E1,-4.315958172E-2,3.126078099E-2,-3.559985757E-2
6.063084858E1,-9.674349800E-3,1.108374521E-1,-1.289052144E-2
6.068084858E1,1.552035287E-2,-4.462619545E-4,-5.101604015E-2
6.073084858E1,-1.371323690E-2,1.439619903E-2,-8.347448893E-3
6.078084858E1,-2.349978499E-2,-2.099312842E-3,-2.918733284E-2
6.083084858E1,-1.023443229E-2,-6.077351794E-2,-1.739365794E-2
6.088084858E1,1.658057235E-2,6.243297458E-2,-9.849606082E-3
6.093084858E1,2.881923877E-2,1.490309834E-1,-3.203869564E-3
6.098084858E1,7.054952532E-2,6.031421572E-2,-4.204973578E-3
6.103084858E1,8.059435338E-2,-7.688338310E-2,-3.153127059E-2
6.108084858E1,-1.858467236E-2,-1.363430545E-2,-1.776030287E-2
6.113084858E1,8.785384707E-3,4.736515880E-2,-1.361159422E-2
6.118084858E1,1.795478910E-2,4.225944169E-3,-1.452751085E-2
6.123084858E1,-1.188245974E-2,3.697512671E-2,-1.104092319E-2
6.128084858E1,-4.137345403E-2,6.654685736E-2,-7.063922286E-2
6.133084858E1,-3.010475077E-2,1.217770725E-1,-7.026482373E-2
6.138084858E1,-6.354881078E-2,1.902325079E-2,-5.501295254E-2
6.143084858E1,-9.290982038E-2,5.334064364E-2,-9.404864907E-2
6.148084858E1,-5.076890439E-2,1.428641677E-1,-8.786342293E-2
6.153084858E1,-1.672914624E-2,6.605340540E-2,-7.531425357E-2
6.158084858E1,2.572519239E-3,7.248057984E-3,-3.394180536E-2
6.163084858E1,-1.665954478E-2,1.545894053E-2,-3.101011179E-2
6.168084858E1,-3.661469370E-2,1.428887844E-1,-7.552463561E-2
6.173084858E1,-2.219060622E-2,7.049205154E-2,-4.498978332E-2
6.178084858E1,-1.752370223E-2,-1.185876969E-2,-9.893923067E-3
6.183084858E1,-1.931147091E-2,1.307037380E-2,-2.745139413E-2
6.188084858E1,4.202590790E-3,3.109472804E-2,-3.286147490E-2
6.193084858E1,-1.912025362E-2,2.607262321E-2,-1.942412369E-2
6.198084858E1,-1.632945798E-2,3.685125336E-2,-1.074993331E-2
6.203084858E1,-1.288203988E-3,3.060664795E-2,-4.779728130E-3
6.208084858E1,-3.425781429E-2,5.395627022E-2,-3.550517932E-2
6.213084858E1,-4.096702207E-3,-3.494464792E-3,-9.451533668E-3
6.218084858E1,-1.653399877E-2,-1.685406198E-3,-1.752765290E-2
6.223084858E1,5.291802809E-4,-7.480571046E-3,-1.257349271E-3
6.228084858E1,2.830344997E-2,-8.165934682E-2,2.697711438E-2
6.233084858E1,-1.119101699E-2,-7.631267607E-2,-2.264108043E-3
6.238084858E1,-8.636044338E-3,-2.450537868E-2,-1.244695298E-2
6.243084858E1,-1.640085876E-2,4.278320074E-2,-1.834576018E-2
6.248084858E1,1.481506974E-2,-4.146010429E-2,8.194876835E-3
6.253084858E1,2.991369739E-2,-9.840339422E-2,2.796642110E-2
6.258084858E1,-8.442847058E-3,-2.478515916E-2,-2.832813421E-3
6.263084858E1,5.029468797E-3,-1.779378019E-2,3.164467169E-3
6.268084858E1,3.196117003E-3,-5.904663820E-3,4.774829373E-3
6.273084858E1,-2.625377290E-2,6.040085480E-2,-3.592558950E-2
6.278084858E1,7.764208131E-3,2.144974656E-3,-5.838710815E-3
6.283084858E1,4.161254317E-2,-7.489883900E-2,6.316883117E-2
6.288084858E1,3.660938144E-2,-5.736982822E-2,3.494034335E-2
6.293084858E1,-4.878264852E-3,-2.585592307E-2,-1.129391417E-2
6.298084858E1,-5.153320730E-2,8.963209391E-2,-3.679255769E-2
6.303084858E1,-7.809748501E-2,2.155000567E-1,-6.738933921E-2
6.308084858E1,-2.770191990E-3,7.666844875E-2,4.850442056E-4
6.313084858E1,5.161026865E-2,-1.273011565E-1,3.859076276E-2
6.318084858E1,3.293550014E-2,-1.507667005E-1,2.638151497E-2
6.323084858E1,-3.831877373E-3,-6.572306156E-2,4.720154218E-3
6.328084858E1,9.849999100E-3,-8.524062485E-2,8.391925134E-3
6.333084858E1,-1.413478144E-2,-3.482441418E-3,-1.311324630E-2
6.338084858E1,-1.451504789E-2,9.475275129E-2,-1.895784587E-2
6.343084858E1,-2.849575318E-2,1.276379228E-1,-2.998221293E-2
6.348084858E1,-1.956888475E-2,1.209879965E-1,-2.628392354E-2
6.353084858E1,2.627105452E-3,8.371361531E-3,4.202756099E-3
6.358084858E1,-1.272128802E-2,3.023418970E-2,-1.882227696E-2
6.363084858E1,7.320311852E-5,3.738574684E-3,-8.686653338E-3
6.368084858E1,-1.358914189E-3,-4.747802764E-2,1.072175242E-2
6.373084858E1,-2.657418139E-3,-6.117064971E-3,-7.179095410E-3
6.378084858E1,-3.223389387E-3,2.698172443E-2,-9.723765776E-3
6.383084858E1,2.655223710E-3,2.821830101E-3,8.580066264E-3
6.388084858E1,8.732834831E-3,-4.253793508E-2,5.308990367E-3
6.393084858E1,-1.241891645E-2,-4.955987679E-4,-1.580106653E-2
6.398084858E1,-3.885525465E-2,9.853620082E-2,-4.129952192E-2
6.403084858E1,1.148805395E-2,4.118913785E-3,8.908093907E-3
6.408084858E1,3.445523791E-3,-2.707784064E-2,-3.738326486E-4
6.413084858E1,-3.423561342E-3,3.754191473E-2,-1.594833098E-2
6.418084858E1,6.751608569E-3,-2.861700207E-2,-6.440739147E-3
6.423084858E1,-3.845031559E-2,6.399310380E-2,-3.641702235E-2
6.428084858E1,1.653896272E-2,9.785451926E-3,1.185129955E-2
6.433084858E1,2.255278639E-3,-6.830853969E-2,2.825938165E-2
6.438084858E1,1.155997161E-4,1.399906073E-2,-1.625844045E-3
6.443084858E1,7.269159891E-3,-1.247852342E-4,5.238959566E-3
6.448084858E1,-1.616670005E-2,-5.741754547E-3,-2.572674071E-3
6.453084858E1,-9.343988262E-3,5.292346328E-2,-2.018493041E-2
6.458084858E1,6.416252814E-3,1.859180443E-2,-4.607822746E-3
6.463084858E1,-5.642836913E-3,-2.513102815E-2,-6.715516560E-3
6.468084858E1,-3.433352709E-2,9.894078970E-2,-4.734814912E-2
6.473084858E1,6.464075297E-3,-7.226927206E-3,-3.375991061E-2
6.478084858E1,-2.945995890E-3,-4.774104059E-2,-3.032632917E-2
6.483084858E1,3.703732044E-2,-1.035467088E-1,3.170089051E-2
6.488084858E1,-1.866103522E-2,4.405403882E-2,-2.930994332E-2
6.493084858E1,-1.061362028E-2,7.252421975E-2,-5.211358145E-2
6.498084858E1,1.264730375E-2,-4.423955828E-2,1.792576537E-2
6.503084858E1,-2.880327590E-2,2.733405493E-2,-4.868809879E-2
6.508084858E1,1.978963381E-3,2.189532854E-2,-2.924806252E-2
6.513084858E1,3.295785515E-3,-2.460397221E-2,-7.254496450E-5
6.518084858E1,1.033287123E-2,-7.529859897E-3,5.849369802E-3
6.523084858E1,1.580372080E-2,-2.120049112E-2,6.968431175E-3
6.528084858E1,3.869003803E-2,-1.165161580E-1,1.041294821E-2
6.533084858E1,1.194187626E-2,-9.839950502E-2,3.295114031E-3
6.538084858E1,-2.856417559E-2,3.685968369E-2,-2.713042870E-2
6.543084858E1,5.442631431E-3,1.139999628E-1,-6.906776689E-3
6.548084858E1,-6.001460366E-3,1.795811765E-2,-4.873174243E-3
6.553084858E1,5.038381368E-2,-8.490704000E-2,5.212139711E-2
6.558084858E1,3.015770577E-2,-1.020852327E-1,-3.431115067E-3
6.563084858E1,2.604341321E-2,-1.264813840E-1,-2.656067722E-2
6.568084858E1,1.198404375E-2,-1.185465753E-1,1.690803841E-2
6.573084858E1,1.432640292E-2,-1.988092363E-1,1.683526300E-2
6.578084858E1,6.270248443E-2,-2.253320217E-1,-7.121280767E-3
6.583084858E1,7.173568010E-2,-2.945492268E-1,7.627443224E-2
6.588084858E1,-7.931458764E-3,-1.126227453E-1,-3.687812015E-2
6.593084858E1,7.589457557E-3,-5.232868716E-2,-3.354038671E-2
6.598084858E1,1.432212815E-2,-1.378250420E-1,-4.009309225E-3
6.603084858E1,5.679792911E-2,-1.381180882E-1,8.864574134E-2
6.608084858E1,1.045954674E-1,-1.957086325E-1,7.847292721E-2
6.613084858E1,-1.796164736E-2,-2.255099826E-2,3.044366837E-2
6.618084858E1,1.313754320E-1,4.753670469E-2,1.203472167E-1
6.623084858E1,1.427873373E-1,-2.345928252E-1,9.312120825E-2
6.628084858E1,-2.955399640E-2,-2.041236460E-1,7.474930584E-2
6.633084858E1,-2.065283656E-1,6.442232430E-2,-1.332672685E-1
6.638084858E1,-8.983357996E-2,-2.369461022E-2,-4.478251934E-2
6.643084858E1,-6.883675605E-2,5.869306624E-2,-6.224779412E-2
6.648084858E1,1.897319406E-2,1.708379984E-1,3.579927608E-2
6.653084858E1,1.433329470E-2,1.375130564E-1,1.130347233E-2
6.658084858E1,-9.808974713E-2,1.413484067E-1,-7.231515646E-2
6.663084858E1,-2.560656331E-2,2.163589001E-1,7.026328146E-2
6.668084858E1,-4.663366824E-2,3.982008994E-2,1.685578525E-1
6.673084858E1,-3.531961143E-2,1.975911669E-2,7.139001042E-2
6.678084858E1,2.817388065E-2,1.615879126E-2,8.994201571E-2
6.683084858E1,3.056371771E-2,1.861670613E-1,1.583633125E-1
6.688084858E1,-1.497206092E-1,3.488236070E-1,-3.132299334E-2
6.693084858E1,2.399211936E-2,-9.289194643E-2,2.436841466E-2
6.698084858E1,1.316339243E-2,-5.415955186E-2,1.918784715E-2
6.703084858E1,-7.690822333E-2,1.512769163E-1,9.159551002E-3
6.708084858E1,-1.016132385E-1,1.960954666E-1,-7.004243135E-2
6.713084858E1,4.507590830E-2,-1.068877652E-1,6.987675279E-2
6.718084858E1,3.203703463E-2,-2.348904014E-1,5.790759623E-2
6.723084858E1,-4.045046121E-2,3.894596547E-2,3.206443507E-4
6.728084858E1,7.302465849E-3,1.293819547E-1,-7.004118524E-4
6.733084858E1,3.539025038E-2,1.664369404E-1,3.414271399E-2
6.738084858E1,1.114004776E-1,3.315394521E-1,8.041025698E-2
6.743084858E1,7.796955854E-2,2.518092096E-1,7.878191024E-2
6.748084858E1,9.303754196E-4,1.710715592E-1,-1.613607164E-4
6.753084858E1,-1.654853486E-2,1.007051766E-1,-6.767690182E-2
6.758084858E1,-6.721475720E-2,2.206131630E-2,-9.826348722E-2
6.763084858E1,-1.733938158E-1,4.414617419E-1,-1.077862978E-1
6.768084858E1,-8.626656979E-2,3.892007470E-1,-7.059591264E-2
6.773084858E1,-2.470309287E-2,1.880196333E-1,-2.351870388E-2
6.778084858E1,3.439228982E-2,1.673020273E-1,-1.379529834E-1
6.783084858E1,-1.438925602E-2,-1.024155766E-1,1.207653359E-1
6.788084858E1,2.453223336E-3,-3.285798058E-2,-1.966182608E-3
6.793084858E1,9.074316174E-2,-1.479235757E-2,1.213235557E-1
6.798084858E1,1.238309368E-1,-1.193099767E-1,1.388322562E-1
6.803084858E1,3.340985999E-2,-8.018264920E-2,-4.246316478E-2
6.808084858E1,-4.585329443E-2,2.479786575E-1,-1.077560037E-1
6.813084858E1,1.427439600E-1,4.107104540E-1,1.664392203E-1
6.818084858E1,1.998037547E-1,4.327796400E-2,2.002047002E-1
6.823084858E1,3.279820085E-4,1.823794544E-1,-4.475508258E-2
6.828084858E1,8.400137722E-2,1.323247254E-1,3.265088797E-2
6.833084858E1,1.385703534E-1,-1.650672220E-2,1.423200518E-1
6.838084858E1,1.726262867E-1,-1.841708273E-1,1.583754122E-1
6.843084858E1,2.172034383E-1,-5.473795533E-1,1.606664658E-1
6.848084858E1,5.122321844E-2,-2.262701988E-1,6.280308962E-2
6.853084858E1,-3.275673836E-2,5.506245494E-1,3.323072195E-2
6.858084858E1,-8.985085040E-2,8.054974675E-1,5.209327862E-2
6.863084858E1,-4.602871090E-2,1.062367082E0,1.193986014E-1
6.868084858E1,3.242379054E-3,6.502035260E-1,1.449071169E-1
6.873084858E1,-1.552481353E-1,5.562143922E-1,7.443721592E-2
6.878084858E1,-1.685668528E-1,6.650743484E-1,-2.930433489E-2
6.883084858E1,-1.235004887E-1,1.015406609E0,-8.486446738E-2
6.888084858E1,-5.142053589E-3,8.709329963E-1,-7.832469791E-2
6.893084858E1,-1.073577814E-2,6.161093116E-1,-2.274316177E-2
6.898084858E1,2.868291922E-2,1.843291819E-1,5.209440365E-2
6.903084858E1,-1.664967649E-2,6.577946991E-2,-2.302208915E-2
6.908084858E1,-6.323014945E-2,9.705562890E-2,-1.565470099E-1
6.913084858E1,-3.995878994E-2,8.496194333E-2,-1.240161210E-1
6.918084858E1,-4.481817782E-2,1.678219438E-1,-8.114670962E-2
6.923084858E1,1.512556430E-2,1.198468134E-1,-2.978813648E-2
6.928084858E1,3.476745449E-3,2.846507356E-2,1.619011536E-2
6.933084858E1,-6.543011218E-2,6.197988987E-2,-8.840781450E-2
6.938084858E1,4.398697987E-3,-9.622702003E-2,-1.847115718E-2
6.943084858E1,4.982220381E-2,-2.646879256E-1,3.494961560E-2
6.948084858E1,-8.534752578E-2,-3.525281325E-2,-1.825860441E-1
6.953084858E1,-7.597800344E-2,-4.599373043E-2,-2.170296460E-1
6.958084858E1,-2.556597255E-2,-7.972692698E-2,-1.484693587E-1
6.963084858E1,-2.900925465E-4,-7.465134561E-2,-7.074966282E-2
6.968084858E1,2.329920419E-2,-1.982887387E-1,-6.188498810E-3
6.973084858E1,1.074768137E-2,-1.291085035E-1,-5.203024298E-2
6.978084858E1,-6.615599990E-2,8.405622840E-2,-1.192680150E-1
6.983084858E1,-7.745052129E-2,-2.860223688E-2,-9.652664512E-2
6.988084858E1,-9.789102525E-2,-4.031305015E-2,-1.099654585E-1
6.993084858E1,-1.782042086E-1,-1.440744102E-1,-1.189476848E-1
6.998084858E1,-2.634006143E-1,-2.765464187E-1,-1.959789395E-1
7.003084858E1,-3.375909626E-1,-1.705300510E-1,-2.845859230E-1
7.008084858E1,-1.298473328E-1,2.635750361E-2,-1.782717556E-1
7.013084858E1,-5.663465708E-2,-2.033868730E-1,-9.552274644E-2
7.018084858E1,-7.562755048E-2,3.398540616E-2,-3.672874346E-2
7.023084858E1,-8.852238208E-2,1.486113369E-1,-5.235438421E-2
7.028084858E1,3.813391924E-2,2.279142849E-3,4.131198674E-2
7.033084858E1,6.225740910E-2,7.708941400E-2,1.409829408E-2
7.038084858E1,4.606421571E-3,1.759100854E-1,-7.131213695E-2
7.043084858E1,4.860069603E-2,-4.930590838E-2,1.371558011E-2
7.048084858E1,1.325875055E-2,5.469248444E-2,1.834833249E-2
7.053084858E1,2.159009874E-2,-1.257313509E-2,5.376590043E-2
7.058084858E1,6.842838973E-2,-7.101806253E-2,8.028705418E-2
7.063084858E1,1.344829332E-2,-4.632887244E-2,2.156147733E-3
7.068084858E1,2.069334686E-2,-7.901531458E-2,-1.624270901E-2
7.073084858E1,2.383329906E-2,4.579815269E-2,3.153440356E-2
7.078084858E1,-5.630533211E-3,1.604328491E-2,6.351715326E-2
7.083084858E1,2.116928622E-2,1.606843174E-1,1.047168225E-1
7.088084858E1,-1.584570855E-2,1.877299845E-1,4.072603211E-2
7.093084858E1,1.357741654E-2,1.707082540E-1,-2.668565884E-2
7.098084858E1,2.667966485E-2,2.138616703E-2,4.659588635E-2
7.103084858E1,4.947820306E-2,4.932076484E-2,1.641388796E-2
7.108084858E1,5.916133523E-2,-3.839169443E-2,1.305261441E-2
7.113084858E1,-8.778630942E-2,7.490465045E-2,-4.082877561E-2
7.118084858E1,-9.562995285E-2,1.270494610E-1,6.409868598E-3
7.123084858E1,1.694231667E-2,3.868609201E-3,4.610861465E-2
7.128084858E1,1.214401983E-2,-1.247571036E-2,-1.755495928E-2
7.133084858E1,-4.603763670E-2,6.624094211E-3,-1.179370061E-1
7.138084858E1,-2.020039782E-2,5.636122823E-2,-4.329990596E-2
7.143084858E1,7.790839765E-3,7.908979058E-2,5.498699844E-2
7.148084858E1,5.250163376E-2,-5.251887813E-2,1.001563296E-1
7.153084858E1,4.929497838E-2,-3.259172663E-2,9.662088752E-2
7.158084858E1,-1.252932940E-2,5.990942940E-2,2.539716847E-2
7.163084858E1,-2.346907742E-2,1.171508953E-1,-2.184144408E-2
7.168084858E1,-9.910376742E-3,2.794917207E-3,-5.028539337E-3
7.173084858E1,6.350957602E-2,4.342171550E-2,1.128326356E-1
7.178084858E1,5.040715635E-2,1.083476022E-1,1.373691708E-1
7.183084858E1,1.053159013E-1,1.856223345E-1,2.771604657E-1
7.188084858E1,2.229757160E-1,2.256005704E-1,3.955695629E-1
7.193084858E1,2.448105514E-1,2.679947615E-1,4.432663918E-1
7.198084858E1,1.642417610E-1,1.050825119E-1,3.925248086E-1
7.203084858E1,1.046428755E-1,1.140448526E-1,2.332073152E-1
7.208084858E1,5.283594131E-2,1.071059406E-1,1.405591965E-1
7.213084858E1,6.125531346E-2,3.997126222E-2,8.700841665E-2
7.218084858E1,5.312880874E-2,4.771539010E-3,9.040522575E-2
7.223084858E1,7.183115929E-2,1.679495350E-2,4.749138281E-2
7.228084858E1,-2.227214910E-2,2.871453203E-2,-1.110951602E-1
7.233084858E1,6.201133132E-3,3.233559057E-2,-1.491043270E-1
7.238084858E1,1.177800447E-2,8.784423023E-2,-3.286438808E-2
7.243084858E1,7.699420303E-2,6.778435409E-2,2.652525902E-1
7.248084858E1,1.063949093E-1,5.548861995E-2,3.368134499E-1
7.253084858E1,1.123578623E-1,2.393023483E-2,3.492216468E-1
7.258084858E1,8.842127770E-2,2.049211413E-2,1.938989013E-1
7.263084858E1,2.187890373E-2,-1.813373342E-2,-4.988774657E-2
7.268084858E1,-3.683695570E-3,1.009845082E-2,-1.144392714E-1
7.273084858E1,4.728481174E-2,-2.876918577E-2,-4.560695216E-2
7.278084858E1,-8.879189938E-2,3.956704214E-2,-5.027386174E-2
7.283084858E1,-3.506125882E-3,-8.893049322E-3,1.944894157E-2
7.288084858E1,2.181163803E-2,3.172761947E-2,7.172769308E-2
7.293084858E1,-2.631405927E-2,2.183833532E-2,2.866516635E-2
7.298084858E1,5.952592194E-2,-1.421689894E-2,1.638798267E-1
7.303084858E1,3.792989254E-2,3.302330151E-2,1.329479218E-1
7.308084858E1,3.702071309E-2,-2.880263142E-2,6.655050069E-2
7.313084858E1,1.802369766E-2,2.866380289E-2,1.822251128E-3
7.318084858E1,-2.484167181E-2,1.333076656E-1,-1.166426856E-2
7.323084858E1,-5.244079977E-2,3.611115366E-2,-3.755681589E-2
7.328084858E1,-1.823652722E-2,-1.441156268E-1,-1.009484828E-1
7.333084858E1,1.307064202E-2,-8.955936879E-2,-1.889991462E-1
7.338084858E1,-6.264882535E-2,-2.251039259E-2,-3.558555245E-1
7.343084858E1,-4.351516068E-2,-1.216359884E-1,-2.965080142E-1
7.348084858E1,-5.549746007E-2,1.328272074E-1,-1.204386801E-1
7.353084858E1,-5.180731416E-2,2.210994214E-1,-5.274992436E-2
7.358084858E1,-1.816858537E-3,8.252128959E-2,2.174532507E-3
7.363084858E1,-1.485227607E-2,3.841463104E-2,-1.167156100E-1
7.368084858E1,-6.746932864E-2,-1.142677502E-3,-1.656277180E-1
7.373084858E1,-4.488873482E-2,-6.087293848E-2,-1.210815609E-1
7.378084858E1,-9.043914825E-2,1.276079845E-2,-1.923265010E-1
7.383084858E1,1.737732440E-3,-9.541063011E-2,-1.039906293E-1
7.388084858E1,2.203026414E-2,-1.198335886E-1,-3.880808875E-2
7.393084858E1,-7.058339566E-2,-1.341587454E-1,-1.104741916E-1
7.398084858E1,-4.728526622E-2,-2.466048747E-1,-5.626092851E-2
7.403084858E1,3.817733377E-2,-9.667030722E-2,-5.568989366E-2
7.408084858E1,-9.731611237E-3,3.800184280E-2,-9.424931370E-3
7.413084858E1,-1.852372661E-2,-9.011247195E-3,-6.380335242E-2
7.418084858E1,-1.500269212E-2,-5.870825797E-2,-2.823125012E-2
7.423084858E1,-1.307011247E-1,1.084358525E-2,-2.636916935E-2
7.428084858E1,-7.281923294E-2,-1.773765683E-1,-7.049945742E-2
7.433084858E1,1.780146267E-3,-3.036801517E-1,1.948529854E-2
7.438084858E1,5.801095814E-2,-3.659679294E-1,-7.243288681E-3
7.443084858E1,-2.310952730E-2,-1.064687520E-1,-6.369682401E-2
7.448084858E1,1.241018064E-3,-1.150758937E-1,-6.934298575E-2
7.453084858E1,1.696892083E-2,-2.201601714E-1,-9.855829179E-3
7.458084858E1,2.501602471E-1,-6.317479610E-1,5.884807557E-2
7.463084858E1,-8.223188668E-2,-1.609266400E-1,7.622499019E-3
7.468084858E1,8.088134974E-2,-7.616116852E-2,9.526275098E-2
7.473084858E1,2.814130485E-1,8.692000806E-2,-1.341391634E-2
7.478084858E1,3.476580381E-1,4.645708203E-2,2.683265209E-1
7.483084858E1,3.138991818E-2,-1.078536585E-1,-9.535416029E-5
7.488084858E1,4.343134351E-3,2.022219636E-2,-7.671917789E-3
7.493084858E1,1.642115712E-1,4.374989867E-2,1.649020612E-1
7.498084858E1,5.203109384E-1,1.048714370E-1,4.269263148E-1
7.503084858E1,5.085616708E-1,8.594112098E-2,3.685668111E-1
7.508084858E1,3.876676261E-1,5.200330168E-2,2.854714990E-1
7.513084858E1,3.653657138E-1,-3.265175223E-2,3.864926398E-1
7.518084858E1,2.780493498E-1,-1.818229072E-2,2.295258343E-1
7.523084858E1,1.969185472E-1,-1.404494420E-2,1.614935547E-1
7.528084858E1,7.238176465E-2,-5.795878172E-2,9.074465930E-2
7.533084858E1,2.718964964E-2,-8.040025830E-2,-4.486056976E-3
7.538084858E1,6.960226595E-2,-1.204217523E-1,2.772796899E-2
7.543084858E1,1.608570963E-1,-5.264718086E-2,2.486192286E-1
7.548084858E1,7.765428722E-2,-1.166764200E-1,1.687410474E-1
7.553084858E1,-3.723438829E-2,-3.816118836E-2,-1.062709019E-1
7.558084858E1,-3.644628078E-2,1.314738095E-1,-3.256652132E-2
7.563084858E1,-3.504058346E-3,7.392892987E-2,-1.732124388E-2
7.568084858E1,-7.142586261E-2,1.993784159E-1,-1.034924090E-1
7.573084858E1,-2.199155092E-1,8.781806380E-2,-2.267017514E-1
7.578084858E1,-2.693997324E-1,-2.469635308E-1,-4.649449587E-1
7.583084858E1,-3.168470412E-2,1.488786656E-2,-1.831256747E-1
7.588084858E1,6.961209327E-2,9.833299369E-2,1.155174673E-1
7.593084858E1,1.004442498E-1,-4.710907117E-3,1.955237538E-1
7.598084858E1,7.441961020E-2,-3.561362624E-2,1.497883052E-1
7.603084858E1,7.732560486E-2,5.094547570E-2,9.638827294E-2
7.608084858E1,6.550772488E-2,7.457104512E-3,1.879670173E-1
7.613084858E1,-3.459293395E-2,-1.105635543E-3,-6.641999632E-2
7.618084858E1,-1.047050394E-2,1.726109236E-1,-1.959514618E-2
7.623084858E1,1.415410787E-1,1.038497090E-1,-2.076703822E-3
7.628084858E1,1.788631827E-2,1.155797616E-1,1.507890522E-1
7.633084858E1,-3.385645896E-2,1.906240880E-1,2.491561770E-1
7.638084858E1,1.696157753E-1,4.525511861E-1,2.692159638E-2
7.643084858E1,4.415837824E-1,4.495633841E-1,6.753543019E-1
7.648084858E1,7.239406705E-1,2.050888836E-1,8.135364652E-1
7.653084858E1,6.466500759E-1,-1.844321489E-1,-2.585440278E-1
7.658084858E1,6.068126559E-1,-6.448693573E-2,2.162606120E-1
7.663084858E1,4.709441364E-1,-2.942965366E-2,3.879407644E-1
7.668084858E1,3.215705454E-1,-1.500545908E-2,1.953742951E-1
7.673084858E1,1.141345650E-1,-1.618905514E-1,-1.056717262E-1
7.678084858E1,6.965637952E-2,-1.082770005E-1,-4.281903431E-2
7.683084858E1,6.721565127E-2,-1.011763792E-2,1.081432551E-1
7.688084858E1,1.751884446E-2,3.638234735E-2,1.197741330E-1
7.693084858E1,1.374660991E-2,5.300194398E-2,4.707543924E-2
7.698084858E1,-8.713082224E-2,-4.365785420E-2,-2.635993063E-1
7.703084858E1,-1.240806058E-1,-1.722463667E-1,-2.584477067E-1
7.708084858E1,-2.889211476E-1,2.392576262E-2,-2.986786366E-1
7.713084858E1,-5.227885246E-1,1.484082639E-1,-3.956173658E-1
7.718084858E1,-4.684936702E-1,-1.393892169E-1,-5.097592473E-1
7.723084858E1,2.179748416E-1,-2.007578015E-1,-1.330711991E-1
7.728084858E1,1.480115857E-2,-3.210329711E-1,-2.774382234E-1
7.733084858E1,1.187535152E-1,-1.065900177E-1,-7.244004309E-2
7.738084858E1,6.510558724E-2,-1.768573304E-3,-8.546324447E-3
7.743084858E1,2.866156586E-2,7.338491082E-2,5.193625018E-2
7.748084858E1,-1.283811033E-2,-9.668014944E-2,-2.594428509E-2
7.753084858E1,2.879438996E-1,-8.455515653E-2,1.037302017E-1
7.758084858E1,-1.365348138E-2,-4.497886822E-2,-1.485006064E-1
7.763084858E1,-1.330545545E-1,3.658187343E-4,-3.071203232E-1
7.768084858E1,1.043730304E-1,-1.161103025E-1,-4.215146229E-2
7.773084858E1,-7.096085697E-2,5.410590023E-2,-6.607433408E-2
7.778084858E1,3.195708618E-2,-1.666797511E-2,4.104548320E-2
7.783084858E1,-1.970124394E-1,-1.033869758E-1,-5.676915869E-2
7.788084858E1,-6.775533780E-3,-4.823315889E-2,-1.620447077E-2
7.793084858E1,8.673074841E-2,-1.831616834E-2,2.075506449E-1
7.798084858E1,5.733581781E-1,1.820660830E-1,5.291131139E-1
7.803084858E1,1.100982070E0,2.630805373E-1,1.002218485E0
7.808084858E1,5.944446921E-1,-1.614212245E-1,1.475830376E-1
7.813084858E1,4.812906981E-1,-5.939413607E-2,5.653162673E-2
7.818084858E1,-6.745940447E-2,-8.074919879E-2,-1.774843037E-1
7.823084858E1,-1.521479785E-1,-4.775177538E-1,-4.678752720E-1
7.828084858E1,-2.355514467E-1,-3.129528761E-1,-2.860381007E-1
7.833084858E1,-5.082294941E-1,-2.963454463E-2,-2.405020297E-1
7.838084858E1,-9.424927086E-2,-2.007323503E-1,-3.173609972E-1
7.843084858E1,1.629898548E-1,-1.363877505E-1,-1.195348948E-1
7.848084858E1,-8.756478876E-2,-6.421872973E-2,-1.242436394E-1
7.853084858E1,-2.896159291E-1,-2.776395380E-1,-4.220019579E-1
7.858084858E1,-2.192264795E-1,-1.446551979E-1,-2.925331593E-1
7.863084858E1,6.155045331E-2,4.838857055E-2,6.220481917E-2
7.868084858E1,7.493889332E-1,3.692798615E-1,8.029699922E-1
7.873084858E1,7.827776074E-1,3.685491085E-1,8.048054576E-1
7.878084858E1,9.197875857E-2,-3.717218526E-3,4.051382467E-2
7.883084858E1,3.194250166E-1,8.612245321E-2,2.469952554E-1
7.888084858E1,8.643740416E-1,-4.562044144E-2,3.353663087E-1
7.893084858E1,1.825124472E-1,-4.959683493E-2,1.390921883E-2
7.898084858E1,2.981716394E-1,-1.781557351E-1,-1.536520012E-2
7.903084858E1,2.644430399E-1,-2.861595713E-2,5.714418367E-2
7.908084858E1,5.313290656E-2,1.548639266E-4,2.126761153E-2
7.913084858E1,-8.919030428E-2,-1.403801981E-2,-4.738736525E-2
7.918084858E1,1.407840252E-1,2.154962346E-2,5.265942588E-2
7.923084858E1,-3.485457972E-3,4.231852889E-1,2.150877714E-1
7.928084858E1,1.251669377E-1,6.413835287E-1,5.460314155E-1
7.933084858E1,2.362060249E-1,2.552170157E-1,6.363906264E-1
7.938084858E1,2.745718360E-1,9.897652268E-2,2.328634113E-1
7.943084858E1,2.881272137E-1,9.703541547E-2,2.170840800E-1
7.948084858E1,1.299875528E-1,1.061659157E-1,1.923868060E-1
7.953084858E1,9.983699769E-2,1.049912572E-1,1.657959819E-1
7.958084858E1,2.160671353E-1,1.298067272E-1,1.603178829E-1
7.963084858E1,1.241659597E-1,1.242910624E-1,8.057297766E-2
7.968084858E1,1.024918035E-1,8.350588381E-2,1.732997298E-1
7.973084858E1,1.988496184E-1,5.919926986E-2,2.679603696E-1
7.978084858E1,3.294986188E-1,5.798802525E-2,4.158532023E-1
7.983084858E1,1.851731241E-1,2.008831799E-1,1.714776158E-1
7.988084858E1,3.190946281E-1,1.394017041E-1,5.469765514E-2
7.993084858E1,2.206088305E-1,7.260335982E-2,2.103894250E-3
7.998084858E1,6.511519849E-2,1.343086809E-1,7.994852215E-2
8.003084858E1,3.546968848E-2,7.035460323E-2,3.526376560E-2
8.008084858E1,5.205643829E-4,5.024173856E-2,3.778544068E-2
8.013084858E1,-2.476092987E-2,2.284064144E-2,2.464979887E-2
8.018084858E1,-3.174697608E-2,-8.758466691E-2,-8.316681534E-2
8.023084858E1,-7.802591473E-2,-8.455592394E-2,-1.131485701E-1
8.028084858E1,-7.747218758E-2,6.225240231E-2,7.306851447E-2
8.033084858E1,-5.621360242E-2,4.480142891E-2,2.583105117E-2
8.038084858E1,-1.046986207E-1,-1.233082116E-1,-1.427379251E-1
8.043084858E1,-1.961237788E-1,-1.972018182E-1,-1.882153749E-1
8.048084858E1,-2.387959361E-1,-2.346557081E-1,-1.982918084E-1
8.053084858E1,-2.511165142E-1,-2.938958406E-1,-3.369224370E-1
8.058084858E1,-3.696044981E-1,-3.635368049E-1,-4.990355968E-1
8.063084858E1,-3.374152780E-1,-2.418265045E-1,-4.212383628E-1
8.068084858E1,-2.587877810E-1,-1.346174330E-1,-3.094058633E-1
8.073084858E1,-1.790504716E-2,-1.947354712E-2,-1.332000643E-2
8.078084858E1,-7.315795869E-2,4.264597222E-2,-7.229238749E-2
8.083084858E1,-3.007336557E-1,-1.075773835E-1,-3.424723744E-1
8.088084858E1,-3.331513703E-1,-1.153689846E-1,-3.590798974E-1
8.093084858E1,-5.137688518E-1,-1.802810580E-1,-5.632465482E-1
8.098084858E1,-5.455391407E-1,-2.281019986E-1,-5.819464326E-1
8.103084858E1,-2.116765380E-1,-4.411429912E-2,-1.961787045E-1
8.108084858E1,-1.668204069E-1,-7.523708791E-2,-1.632373631E-1
8.113084858E1,-3.753248751E-1,-1.875726283E-1,-4.143767953E-1
8.118084858E1,-7.010803819E-1,-3.219906390E-1,-7.440678477E-1
8.123084858E1,-7.880071402E-1,-3.751425147E-1,-8.634575009E-1
8.128084858E1,-5.260046721E-1,-2.488909960E-1,-5.443794727E-1
8.133084858E1,-6.159248948E-2,-1.061993744E-2,-7.498094440E-2
8.138084858E1,-4.356956482E-2,1.899328781E-4,-4.422372207E-2
8.143084858E1,-2.896632254E-1,-2.005780339E-1,-3.668279946E-1
8.148084858E1,-4.503005445E-1,-2.581086457E-1,-5.310865045E-1
8.153084858E1,-4.618643522E-1,-2.189846635E-1,-5.113159418E-1
8.158084858E1,-2.461084574E-1,-5.404150113E-2,-1.861406863E-1
8.163084858E1,-1.288007293E-2,2.019961365E-2,-2.792748436E-2
8.168084858E1,-1.031594500E-1,-3.972323984E-2,-1.358250082E-1
8.173084858E1,-2.510282695E-1,-1.090273261E-1,-2.855760157E-1
8.178084858E1,-4.237799346E-2,-1.747872867E-2,-5.307099596E-2
8.183084858E1,1.357230991E-1,8.522442728E-2,1.610952616E-1
8.188084858E1,-2.786608972E-2,-1.802675426E-2,-4.033281282E-2
8.193084858E1,-2.806818672E-2,-1.048670895E-2,-3.412465751E-2
8.198084858E1,-2.567863278E-2,-6.033116952E-3,-3.843142092E-2
8.203084858E1,2.809029259E-2,4.834508151E-2,3.193744645E-2
8.208084858E1,6.759815663E-2,5.104485899E-2,6.278975308E-2
8.213084858E1,-1.434895098E-1,-7.562637329E-2,-1.670644581E-1
8.218084858E1,3.192672879E-2,2.359000966E-2,2.988612093E-2
8.223084858E1,9.028779343E-3,4.739456810E-3,1.234611683E-2
8.228084858E1,-1.203776821E-1,-6.707599759E-2,-1.359073520E-1
8.233084858E1,5.971834809E-2,2.871767990E-2,5.188054219E-2
8.238084858E1,1.912812442E-1,1.192315370E-1,2.037474662E-1
8.243084858E1,1.633807421E-1,1.224041283E-1,1.516620219E-1
8.248084858E1,1.098603979E-1,1.506460756E-1,1.135934219E-1
8.253084858E1,1.473172903E-1,1.380483806E-1,1.680660844E-1
8.258084858E1,1.506219506E-1,1.546355933E-1,1.698247641E-1
8.263084858E1,8.242930472E-2,1.714197397E-1,2.000009865E-1
8.268084858E1,1.656775177E-1,2.136228383E-1,2.635763884E-1
8.273084858E1,4.734536260E-2,1.472804248E-1,5.941613019E-2
8.278084858E1,-5.422458053E-2,2.748751938E-1,2.743773162E-1
8.283084858E1,-4.227124751E-1,4.547147453E-1,4.446673393E-1
8.288084858E1,-1.893880516E-1,3.295130134E-1,3.476041555E-1
8.293084858E1,9.653959423E-2,2.942427099E-1,3.974441886E-1
8.298084858E1,-1.310149431E-1,1.732056737E-1,1.540089548E-1
8.303084858E1,-1.660850793E-1,-3.038465045E-3,5.965410173E-2
8.308084858E1,-3.126508594E-1,7.060389221E-2,6.958440691E-2
8.313084858E1,-4.352993071E-1,1.119624078E-1,4.039467871E-2
8.318084858E1,-2.655312121E-1,-1.198883355E-1,1.247442365E-1
8.323084858E1,-2.598335147E-1,8.765517734E-3,-7.308610529E-2
8.328084858E1,-2.489238679E-1,1.510181129E-1,-1.108188555E-2
8.333084858E1,-3.483301997E-1,1.681267656E-2,2.067213655E-1
8.338084858E1,-4.983741343E-1,-5.599281192E-2,3.149625659E-1
8.343084858E1,-5.113985538E-1,8.107756078E-2,2.698229551E-1
8.348084858E1,-3.272808790E-1,2.416766286E-1,1.368932277E-1
8.353084858E1,1.369137317E-1,-1.958759278E-1,2.568469197E-2
8.358084858E1,1.350923032E-1,-3.204604387E-1,2.914494276E-1
8.363084858E1,1.034523621E-1,-1.904719770E-1,1.263586283E-1
8.368084858E1,-1.571368426E-3,-1.008230448E-1,-8.350902796E-2
8.373084858E1,-8.101604134E-2,-1.619836688E-1,7.867711037E-2
8.378084858E1,-5.126278847E-2,2.132317610E-2,-1.341157127E-2
8.383084858E1,-1.387881488E-1,-3.950370476E-2,3.664395073E-3
8.388084858E1,-1.062886566E-1,-5.048103258E-2,5.558530614E-2
8.393084858E1,6.955254823E-2,1.045050621E-1,7.035830617E-2
8.398084858E1,1.543833315E-1,5.429778993E-2,-3.342331946E-2
8.403084858E1,2.905232608E-1,1.156726182E-1,-1.984871626E-1
8.408084858E1,2.298885435E-1,4.283824563E-2,-8.122521639E-2
8.413084858E1,1.424444318E-1,-1.600539535E-1,-1.815903559E-2
8.418084858E1,1.018623337E-1,5.676545948E-2,4.081296921E-2
8.423084858E1,6.256692111E-2,1.333757043E-1,-8.699443191E-2
8.428084858E1,1.186867729E-1,-8.091013134E-2,-1.220369190E-1
8.433084858E1,1.233253255E-1,2.020029165E-2,5.911416560E-2
8.438084858E1,1.058382243E-1,5.560719967E-2,3.602853278E-3
8.443084858E1,1.081994101E-1,9.993587434E-2,-8.169841021E-3
8.448084858E1,-5.668772012E-2,-3.017263487E-2,-1.505625248E-1
8.453084858E1,-1.006668247E-2,-4.542441666E-2,-1.292595118E-1
8.458084858E1,4.146319628E-2,-3.683519317E-4,8.780073375E-2
8.463084858E1,4.563244991E-3,-3.677127138E-2,-1.321001444E-2
8.468084858E1,6.317190081E-2,-1.177848433E-3,-1.433402067E-3
8.473084858E1,1.936971694E-1,8.053147048E-2,2.479425371E-1
8.478084858E1,5.323563516E-2,1.519128215E-2,4.478195310E-2
8.483084858E1,-7.894674689E-2,1.055671554E-2,-3.791517392E-2
8.488084858E1,2.996808849E-2,1.943933219E-2,6.439892948E-2
8.493084858E1,-7.470794767E-2,3.622460365E-2,1.286082203E-3
8.498084858E1,8.806017227E-3,3.432517871E-2,2.173293196E-2
8.503084858E1,-2.674247138E-3,7.783469744E-3,-7.792311907E-2
8.508084858E1,-8.715386502E-5,4.875546321E-2,-7.481083274E-2
8.513084858E1,-1.986069232E-2,8.831103332E-5,-4.852072895E-2
8.518084858E1,-4.399675131E-2,2.414932940E-3,-2.739296854E-2
8.523084858E1,-1.291112136E-2,2.659438644E-3,-4.053388163E-2
8.528084858E1,-5.462538451E-2,-2.362872101E-2,-1.423504949E-1
8.533084858E1,-1.332851052E-1,-5.473684520E-2,-3.154304624E-1
8.538084858E1,-1.029805467E-1,-9.601968527E-2,-2.519820929E-1
8.543084858E1,-2.744362503E-2,6.883191410E-3,-7.278561592E-2
8.548084858E1,3.847812768E-4,2.716536401E-4,-1.361368876E-2
8.553084858E1,4.706174135E-2,2.935426123E-2,1.071811020E-1
8.558084858E1,2.223871090E-2,1.221899036E-2,3.109125420E-2
8.563084858E1,1.062823646E-2,1.145106368E-2,2.437780052E-2
8.568084858E1,3.230168950E-3,1.959953085E-2,6.357601844E-3
8.573084858E1,-4.729318433E-3,6.338090450E-2,1.833645254E-2
8.578084858E1,1.329270937E-2,4.576913081E-3,-4.759970121E-3
8.583084858E1,3.077196144E-2,4.512228817E-2,5.826966837E-2
8.588084858E1,2.605484128E-1,9.310842305E-2,1.150095463E-1
8.593084858E1,2.099714428E-1,-5.970823392E-2,-2.251351997E-2
8.598084858E1,9.723273665E-2,-4.071956128E-2,1.582742482E-2
8.603084858E1,-2.325944975E-2,5.756249651E-2,2.292523533E-2
8.608084858E1,-1.022570673E-2,9.419967234E-2,2.070495114E-2
8.613084858E1,-2.391107567E-2,3.455187380E-2,-1.411675662E-2
8.618084858E1,-1.818359457E-2,4.788069054E-3,-1.633184589E-2
8.623084858E1,-2.204968408E-2,-2.233955637E-2,-4.366299137E-2
8.628084858E1,1.074651163E-2,-7.086703554E-3,-1.024251617E-2
8.633084858E1,-2.074924111E-2,-2.122456674E-3,-1.784318872E-2
8.638084858E1,-1.781698503E-2,1.966922078E-3,-4.720749334E-2
8.643084858E1,4.122824408E-3,2.015899867E-3,6.470981054E-3
8.648084858E1,1.191694755E-3,-9.124983335E-4,-1.046308596E-2
8.653084858E1,-3.182084113E-2,1.888920180E-2,-4.083786532E-2
8.658084858E1,2.550994977E-2,9.252862073E-3,2.509846725E-2
8.663084858E1,5.388398655E-3,2.926535346E-2,3.834927827E-2
8.668084858E1,-6.487168372E-3,5.516788922E-3,-2.376137674E-2
8.673084858E1,1.635689661E-2,1.114168856E-2,2.544105612E-2
8.678084858E1,-2.066635713E-2,3.085909411E-3,-4.468865320E-2
8.683084858E1,1.399242599E-2,6.199484691E-3,4.278440028E-3
8.688084858E1,-9.087604471E-3,4.672118463E-3,-1.477849111E-2
8.693084858E1,3.072677739E-2,7.459111512E-3,1.427415200E-2
8.698084858E1,-1.622625627E-3,4.110245500E-4,7.858651225E-4
8.703084858E1,9.043082595E-3,6.049221382E-3,2.117975382E-3
8.708084858E1,1.433971338E-4,-3.725560382E-4,2.420832403E-3
8.713084858E1,-1.531388424E-2,-2.952963579E-3,-3.229599446E-2
8.718084858E1,-2.486459352E-2,-5.678884219E-3,-5.374736339E-2
8.723084858E1,-4.435919225E-3,-3.214073367E-3,-1.921337564E-3
8.728084858E1,3.312581684E-4,-9.054917842E-3,-1.214221679E-2
8.733084858E1,-2.617012244E-3,-7.976199500E-3,-4.876823165E-3
8.738084858E1,-2.721867524E-3,-6.955219433E-3,-1.614799351E-2
8.743084858E1,1.198889501E-2,-9.182634531E-4,7.381590083E-3
8.748084858E1,-1.297066733E-2,1.132268272E-2,-1.055761427E-2
8.753084858E1,4.760034382E-3,-4.093334079E-3,-8.819453418E-3
8.758084858E1,-4.997903481E-3,1.051946310E-4,-1.262376737E-2
8.763084858E1,4.761307500E-3,1.963338815E-3,-5.067862570E-3
8.768084858E1,-4.820579663E-3,-2.287106588E-3,-7.900143974E-3
8.773084858E1,4.088506103E-7,-4.768189508E-3,-1.874754392E-2
8.778084858E1,-3.576322459E-3,1.273455215E-3,-1.230328344E-2
8.783084858E1,-6.007076241E-3,-1.162249781E-2,-2.374036610E-2
8.788084858E1,-4.924573936E-3,-1.616214868E-3,-1.292507444E-2
8.793084858E1,6.061356515E-3,-4.221776035E-3,-3.429155331E-3
8.798084858E1,8.332415018E-4,3.516441211E-5,2.413224895E-3
8.803084858E1,-3.644968383E-4,1.417646534E-3,-4.074470489E-4
8.808084858E1,7.407579105E-3,-1.797426259E-3,-1.289104461E-3
8.813084858E1,4.506085068E-3,-2.148454078E-3,2.041251399E-3
8.818084858E1,-8.583288640E-3,2.515376545E-3,-1.167300902E-2
8.823084858E1,6.889718585E-3,4.333470948E-3,6.542194635E-3
8.828084858E1,-6.500665098E-3,-5.289603956E-3,-9.279020131E-3
8.833084858E1,-1.232571667E-3,5.449145101E-4,-6.045163609E-3
8.838084858E1,-7.438099012E-3,-5.053287372E-3,-2.207178250E-2
8.843084858E1,2.616862301E-3,-6.263406831E-4,2.571064048E-3
8.848084858E1,-2.271796111E-4,6.200894713E-3,-9.749874007E-4
8.853084858E1,5.873422604E-3,5.575700197E-3,1.255364902E-2
8.858084858E1,1.883073011E-3,-1.619915711E-4,-2.308551222E-3
8.863084858E1,9.738292545E-3,7.798222825E-3,3.655943321E-3
8.868084858E1,3.998507559E-2,3.906990401E-3,1.993797254E-3
8.873084858E1,-5.202759989E-3,2.626135480E-3,-4.953353666E-3
8.878084858E1,-7.080449723E-4,-1.865787199E-4,-7.232586853E-3
8.883084858E1,-1.128037460E-3,4.887698218E-3,1.916512847E-3
8.888084858E1,-9.127533063E-3,-2.211880405E-3,-1.269269641E-2
8.893084858E1,-1.120338868E-2,-1.127671264E-2,-4.242618009E-2
8.898084858E1,8.539121598E-3,-7.376031019E-3,-3.027396742E-4
8.903084858E1,-7.862081751E-3,-6.514895242E-3,-1.695600711E-2
8.908084858E1,6.179512478E-3,1.454752218E-2,2.092215046E-2
8.913084858E1,1.507779351E-3,7.247780450E-3,2.276097191E-3
8.918084858E1,-9.263905231E-4,-4.163745325E-4,-7.539443672E-3
8.923084858E1,-5.860475823E-3,-1.015111338E-2,-3.194044903E-2
8.928084858E1,3.573236614E-2,-8.564528078E-3,-9.787210729E-4
8.933084858E1,4.271537531E-3,4.795646295E-3,8.074897341E-3
8.938084858E1,2.239649184E-2,6.681701634E-3,1.496880129E-2
8.943084858E1,4.715915769E-3,-3.558746073E-3,-2.155844588E-3
8.948084858E1,1.426615100E-2,-6.983811501E-3,-7.734540850E-3
8.953084858E1,2.695602737E-2,-1.117446832E-2,-1.700345613E-2
8.958084858E1,8.234820515E-2,1.718677208E-2,8.850561827E-2
8.963084858E1,1.315846294E-1,1.152135432E-2,1.555992663E-1
8.968084858E1,9.564539045E-2,2.429384552E-2,1.190661043E-1
8.973084858E1,-4.223119933E-3,5.700306036E-3,1.868439140E-3
8.978084858E1,-9.243521839E-3,-1.887368970E-2,-5.519606173E-2
8.983084858E1,-7.194075733E-3,-1.319106575E-2,-1.936049759E-2
8.988084858E1,-1.258677244E-2,1.406048238E-2,-3.002525866E-2
8.993084858E1,-4.240424186E-2,-1.892415457E-3,-7.844372094E-2
8.998084858E1,-3.126969934E-2,-2.715155482E-2,-5.356445536E-2
9.003084858E1,-5.186954886E-2,-4.574960843E-2,-1.419985443E-1
9.008084858E1,-4.519984126E-2,-3.040879406E-2,-8.088535815E-2
9.013084858E1,-8.463150822E-3,-3.313298803E-4,-1.393621042E-2
9.018084858E1,-4.721505940E-2,-2.049148642E-2,-9.028121829E-2
9.023084858E1,-5.090765655E-2,-3.443087265E-2,-5.973027274E-2
9.028084858E1,-2.191083133E-2,-5.237760395E-2,-6.364722550E-2
9.033084858E1,3.562198579E-2,3.203172237E-2,8.759751916E-2
9.038084858E1,4.909121431E-3,6.702274550E-3,-2.122814953E-2
9.043084858E1,-7.474397123E-2,3.733627126E-2,1.200288441E-2
9.048084858E1,-3.337842971E-2,-1.327355579E-2,9.440888651E-3
9.053084858E1,1.582836849E-3,-1.119656488E-2,-8.949759416E-3
9.058084858E1,2.827169606E-3,-1.059296448E-2,2.163058892E-2
9.063084858E1,1.121561602E-2,-1.952345110E-2,9.527221322E-3
9.068084858E1,3.345024586E-2,5.842044018E-3,5.705855414E-2
9.073084858E1,2.273479244E-3,3.434867039E-2,-1.542979572E-2
9.078084858E1,3.335080110E-3,1.336041559E-2,-6.149590481E-4
9.083084858E1,7.521272637E-4,-1.586004347E-2,-5.697917566E-2
9.088084858E1,5.939956009E-2,-4.069462419E-2,1.013318151E-1
9.093084858E1,-1.240194589E-2,2.021958120E-3,-5.611630157E-2
9.098084858E1,-1.327230968E-2,-4.476389661E-2,-1.326919645E-1
9.103084858E1,-2.762174420E-2,-5.346890539E-2,-8.718398213E-2
9.108084858E1,-3.137411177E-2,-5.772427469E-2,-9.317293018E-2
9.113084858E1,1.028361991E-1,-5.037915893E-3,1.152033061E-1
9.118084858E1,3.921025246E-2,5.545261502E-2,6.575745344E-2
9.123084858E1,1.838920265E-2,1.023070514E-2,-7.907876279E-4
9.128084858E1,1.318014227E-2,-1.534176711E-2,-1.617788523E-2
9.133084858E1,2.813829668E-2,-2.448695153E-2,-3.439572453E-2
9.138084858E1,8.402746171E-3,-1.980615593E-2,-3.222442418E-2
9.143084858E1,-1.060328446E-2,-1.334670279E-2,-3.238385543E-2
9.148084858E1,-2.409367077E-2,3.980484791E-3,-2.819540538E-2
9.153084858E1,-2.563708089E-2,-9.949221276E-3,-5.277691409E-2
9.158084858E1,4.998872429E-2,-4.775285348E-2,-2.031808160E-2
9.163084858E1,-1.245487761E-2,-1.152435131E-2,-3.297514841E-2
9.168084858E1,-6.262315810E-2,-3.470992669E-2,-8.192177862E-2
9.173084858E1,1.738828607E-3,-1.184864119E-1,-1.113152951E-1
9.178084858E1,5.665722769E-3,-6.968683004E-2,-8.485542983E-2
9.183084858E1,3.240345418E-2,-3.478039056E-3,-3.421885148E-2
9.188084858E1,7.255816460E-2,5.696161091E-2,6.913264096E-2
9.193084858E1,8.597437292E-2,6.004863419E-3,-5.365922116E-3
9.198084858E1,6.415889412E-2,-5.890247971E-2,-7.906757295E-2
9.203084858E1,4.046532512E-2,-5.645873398E-2,-7.320857793E-2
9.208084858E1,2.046644874E-2,-5.616066512E-3,-3.128146008E-2
9.213084858E1,-1.007583225E-3,-6.164962426E-3,-3.651433811E-2
9.218084858E1,-2.672764845E-2,-6.086262409E-3,-3.019610047E-2
9.223084858E1,-6.076084822E-2,1.117919106E-2,-4.854090139E-2
9.228084858E1,1.167282928E-2,5.246619135E-2,2.916888706E-2
9.233084858E1,-3.859358281E-2,2.054375224E-2,-5.337306298E-3
9.238084858E1,-3.596158326E-2,5.609987304E-3,-2.143319696E-2
9.243084858E1,-5.906840414E-2,-2.096098848E-2,-8.962014318E-2
9.248084858E1,-5.329626799E-2,-2.715279721E-2,-1.016466171E-1
9.253084858E1,1.024381164E-2,-1.021847129E-1,-1.206396222E-1
9.258084858E1,1.733352989E-2,-8.482249826E-2,-7.647667080E-2
9.263084858E1,3.042057902E-2,1.913453825E-2,6.106400862E-2
9.268084858E1,1.550513692E-2,3.472992778E-2,5.655686185E-2
9.273084858E1,4.343989491E-2,2.046664804E-2,6.754275411E-2
9.278084858E1,6.058692001E-3,-1.050915942E-2,5.972119980E-3
9.283084858E1,-5.957763642E-3,-5.172466394E-3,-1.025745180E-2
9.288084858E1,5.997211672E-3,-8.564102463E-3,-1.120952424E-2
9.293084858E1,1.949687675E-2,-3.803427098E-4,1.420431025E-2
9.298084858E1,1.806394383E-2,1.344945468E-2,1.694525592E-2
9.303084858E1,4.334098101E-2,1.868437044E-2,7.254441082E-2
9.308084858E1,5.784020573E-2,1.686090045E-2,1.141701862E-1
9.313084858E1,5.914673954E-2,2.669855766E-2,9.808807075E-2
9.318084858E1,-3.298299853E-3,-2.779748756E-3,-1.024469500E-3
9.323084858E1,-6.454201043E-2,-4.287445918E-2,-9.740349650E-2
9.328084858E1,-1.026680246E-1,-2.631658874E-2,-1.159636378E-1
9.333084858E1,-4.881595820E-2,1.880219392E-2,2.713765763E-2
9.338084858E1,-1.011859439E-2,4.488059878E-2,2.823872864E-2
9.343084858E1,3.859952092E-2,3.503359854E-2,2.993165888E-2
9.348084858E1,1.107160076E-1,4.518315941E-2,4.725930467E-2
9.353084858E1,1.348102838E-2,-9.257635102E-3,-4.832735285E-3
9.358084858E1,-1.326669939E-2,-5.436426029E-2,-3.801368549E-2
9.363084858E1,-2.972772904E-2,-3.586642072E-2,-4.696564749E-2
9.368084858E1,-9.181337804E-2,-6.750238687E-2,-1.616486162E-1
9.373084858E1,5.244506896E-2,2.131523564E-2,7.525017112E-2
9.378084858E1,1.085695624E-2,1.471295673E-2,2.271970548E-2
9.383084858E1,-6.158852018E-3,-5.838107318E-3,-9.062407538E-3
9.388084858E1,-3.463227767E-4,-8.711150847E-3,1.486658584E-2
9.393084858E1,-2.821251936E-2,-2.503075637E-2,-2.934714220E-2
9.398084858E1,-3.075234406E-2,-5.733651668E-2,-4.314339161E-2
9.403084858E1,-1.740195043E-2,-1.372124553E-1,-3.068125993E-2
9.408084858E1,1.383819897E-2,-2.796027623E-2,1.715824381E-2
9.413084858E1,-7.405085489E-3,4.201583564E-3,2.972034039E-3
9.418084858E1,3.190045804E-2,1.089009922E-2,1.273205318E-2
9.423084858E1,1.928167883E-3,8.484472521E-3,-4.839292727E-3
9.428084858E1,6.861188263E-2,2.890408598E-2,4.705382138E-2
9.433084858E1,2.878193278E-3,2.032294683E-2,3.498483822E-2
9.438084858E1,5.442473106E-3,-1.135316025E-2,2.247121930E-2
9.443084858E1,9.979228489E-4,-1.009281818E-2,-7.554096170E-3
9.448084858E1,-4.683698062E-3,-3.510977607E-3,-1.332605071E-2
9.453084858E1,-2.666809224E-2,-1.534245326E-3,-3.862826526E-2
9.458084858E1,3.642201424E-3,-9.180476889E-3,-2.476932481E-3
9.463084858E1,1.275481004E-2,1.443712506E-2,1.144885458E-2
9.468084858E1,-5.568639375E-3,1.329123694E-2,7.887220010E-3
9.473084858E1,6.522144657E-3,-4.457455128E-3,-1.139937900E-3
9.478084858E1,-5.033995491E-3,2.032466698E-3,4.210331477E-3
9.483084858E1,2.402478084E-2,7.544076070E-3,2.125590481E-2
9.488084858E1,5.642323755E-3,1.776128262E-2,1.468231529E-2
9.493084858E1,-4.763077013E-3,-3.882601159E-4,-7.613251917E-3
9.498084858E1,3.733490594E-4,-1.551801246E-2,-3.962566145E-3
9.503084858E1,4.053197801E-2,1.717906073E-2,4.799193144E-2
9.508084858E1,2.612043358E-2,3.635711968E-2,6.576235592E-2
9.513084858E1,5.580457859E-3,7.107353769E-3,9.609910659E-3
9.518084858E1,1.345908153E-3,-8.757480420E-3,-2.604715712E-2
9.523084858E1,-1.195473783E-2,-1.768404692E-1,4.164699465E-3
9.528084858E1,2.467266098E-2,2.588564530E-3,-3.806441277E-2
9.533084858E1,-3.253828734E-2,-1.819915883E-2,-1.092505306E-1
9.538084858E1,-9.693098813E-2,-3.449439257E-2,-1.508394778E-1
9.543084858E1,-1.081930324E-1,-1.288592219E-1,-1.975747049E-1
9.548084858E1,-1.792479455E-1,-2.069671005E-1,-3.328533173E-1
9.553084858E1,-1.472644955E-1,-1.392939687E-1,-2.615707219E-1
9.558084858E1,-6.038273126E-2,-8.147187531E-2,-9.130389988E-2
9.563084858E1,-1.461005956E-1,-2.436422706E-1,-2.779287100E-1
9.568084858E1,-1.149220392E-1,-2.895462513E-1,-3.017129898E-1
9.573084858E1,-1.355280876E-1,-2.817331254E-1,-2.780523896E-1
9.578084858E1,-3.988351673E-2,-5.216306075E-2,-6.593772024E-2
9.583084858E1,1.434718072E-2,-5.333710462E-2,6.227679551E-3
9.588084858E1,4.292178899E-3,-3.764747828E-2,-5.224797875E-3
9.593084858E1,-4.644727707E-2,-4.865243658E-2,-7.140422612E-2
9.598084858E1,-1.214373335E-1,-1.359782815E-1,-1.987229586E-1
9.603084858E1,-1.110360324E-1,-1.567144096E-1,-2.000165880E-1
9.608084858E1,-3.352437168E-2,-4.192533344E-2,-7.230771333E-2
9.613084858E1,-5.854605697E-3,-1.732407510E-2,-1.763940975E-2
9.618084858E1,1.882632077E-2,-5.562940612E-3,1.874678954E-2
9.623084858E1,6.000087131E-3,4.721068777E-3,6.451903842E-3
9.628084858E1,-2.986579202E-2,-1.326256152E-2,-4.110150784E-2
9.633084858E1,-4.250828177E-2,-2.440268733E-2,-6.818854809E-2
9.638084858E1,-2.367409132E-2,-2.196961269E-2,-5.853215232E-2
9.643084858E1,-1.378291473E-2,-2.591289766E-2,-4.181597754E-2
9.648084858E1,-2.989559062E-2,-1.410660148E-2,-4.516762123E-2
9.653084858E1,-5.537142605E-2,-4.754588008E-2,-1.073599085E-1
9.658084858E1,2.363088913E-2,-1.609174013E-1,-1.141571403E-1
9.663084858E1,-3.659700602E-2,-3.799525648E-2,-7.738725841E-2
9.668084858E1,-3.049458377E-3,3.807186615E-3,-3.839668119E-3
9.673084858E1,1.313194819E-2,5.910280161E-3,1.496207714E-2
9.678084858E1,7.336631417E-3,1.462251320E-2,1.099171024E-2
9.683084858E1,-1.355966739E-2,1.226137206E-2,-9.321423247E-3
9.688084858E1,-1.517773233E-2,7.289475761E-3,-1.252406370E-2
9.693084858E1,2.288643830E-2,1.475818921E-2,2.911250293E-2
9.698084858E1,5.440302659E-3,6.658698898E-3,1.018711831E-2
9.703084858E1,1.974500250E-3,-7.235039375E-4,-1.626277925E-3
9.708084858E1,-1.927356236E-3,1.594657195E-3,-8.541501593E-4
9.713084858E1,6.501283962E-3,4.355974495E-3,4.135812633E-3
9.718084858E1,-5.056783557E-3,-6.462854799E-5,-4.709975794E-3
9.723084858E1,-1.546635292E-3,-1.375740510E-3,-5.632297136E-3
9.728084858E1,2.437341493E-3,4.697845783E-3,2.907437971E-3
9.733084858E1,-4.742964171E-3,-8.157105185E-5,-4.046180286E-3
9.738084858E1,-1.506202389E-3,1.263138256E-4,-4.211558029E-3
9.743084858E1,-4.115514457E-3,-8.207954234E-4,-5.233644508E-3
9.748084858E1,-6.929115392E-3,-2.618327504E-3,-1.157895476E-2
9.753084858E1,-1.418929361E-2,-7.838467136E-3,-1.655759849E-2
9.758084858E1,-1.110133994E-2,-6.087660789E-3,-1.400470734E-2
9.763084858E1,-7.077092305E-3,-2.867142204E-3,-1.026298665E-2
9.768084858E1,-4.746253137E-3,-3.398127737E-4,-7.389557548E-3
9.773084858E1,-7.231582887E-3,-4.064351320E-3,-9.986769408E-3
9.778084858E1,-2.062593214E-2,-1.211981010E-2,-2.443980612E-2
9.783084858E1,-7.000662386E-3,-2.498085145E-3,-8.680769242E-3
9.788084858E1,-7.031368092E-3,-4.252242390E-3,-1.028749347E-2
9.793084858E1,-5.060980562E-3,-2.893059980E-3,-9.116429836E-3
9.798084858E1,-3.232965246E-4,2.439562231E-4,-9.782210691E-4
9.803084858E1,-1.804966014E-3,1.031636028E-3,-4.199258983E-3
9.808084858E1,-4.813732579E-3,-2.954204101E-3,-7.741114125E-3
9.813084858E1,-9.101540782E-4,-1.056458335E-3,-4.590555094E-3
9.818084858E1,-9.035624564E-3,-2.463602927E-3,-1.140909083E-2
9.823084858E1,-6.708042696E-3,-3.153556027E-3,-1.016742457E-2
9.828084858E1,-4.555486143E-3,-3.319522832E-3,-8.640667424E-3
9.833084858E1,-5.513379350E-3,-1.903542201E-3,-5.016267300E-3
9.838084858E1,-6.021812558E-3,-3.844815772E-3,-1.163211651E-2
9.843084858E1,-3.026335035E-3,8.109313203E-4,-2.187784994E-3
9.848084858E1,3.312225454E-4,-8.240772877E-4,-4.127273336E-3
9.853084858E1,-1.527321525E-3,-2.911723277E-4,-2.925676992E-3
9.858084858E1,6.303843111E-5,1.831624541E-3,-5.953685031E-4
9.863084858E1,-9.466085583E-3,-4.173804540E-3,-1.012654975E-2
9.868084858E1,-3.026186023E-3,-2.147627762E-3,-5.011732690E-3
9.873084858E1,2.269923454E-3,2.407251857E-3,4.319420550E-4
9.878084858E1,-1.564556733E-4,8.523321012E-4,8.147124900E-4
9.883084858E1,-1.414095517E-3,-5.410386948E-4,-3.536864882E-3
9.888084858E1,-3.604618832E-4,-3.931098036E-4,-3.218721366E-3
9.893084858E1,6.816142704E-4,2.494075801E-3,-8.641676395E-4
9.898084858E1,-1.764100976E-3,2.031195443E-3,-1.709367498E-4
9.903084858E1,1.499663922E-3,-1.875574235E-4,-6.326144212E-4
9.908084858E1,-3.083950374E-3,-9.394354420E-4,-4.277044907E-3
9.913084858E1,-1.275694231E-3,1.422085450E-3,-2.604248235E-3
9.918084858E1,9.969511302E-4,2.889781259E-3,5.958100082E-4
9.923084858E1,-5.745133385E-4,1.602598815E-3,-1.744149835E-3
9.928084858E1,-2.345934510E-3,-6.881076843E-5,-4.096473567E-3
